Folder: GlassyIonicConductorDatabase/program/database/experiments/MU/normal/906_ppo_chloranil_litfsi/eis_data

Note: README.md
# GlassyIonicConductorDatabase

- Contains daily experimental data of polymeric ionic conductors
  
  - Process (as flowchart), structure, measurements, and properties

- Data are processed by machine learning tools

# Requirements

- Check for env. yml

- This database is processed by "FlowMater", which can treat graph data.
  
  - Visit the following URL for the latest version.
  
  - https://github.com/KanHatakeyama/FlowMater2

# Related paper

- TBD

# History

- version 2022.1.18: initial version

# Author

- Kan Hatakeyama-Sato
- Waseda University
- [Kan Hatakeyama](https://kanhatakeyama.github.io/)
- [satokan@toki.waseda](mailto:satokan@toki.waseda).(japan)

File: 1.txt
File.......:  cell1ppochloranillitfsi10wt - SEP,07.2021

System.....:
Potential..:  0.003V
Current....:  -47.323nA
Temperature:  -0.7 +-0.0 C
Time.......:  16:50:39 - 16:51:25
Comment....:

              Main
time.......:  9480 s
Impedance samples

Lines:   45
Columns: 5

Number   Frequency/Hz   impedance R/Ohm   impedance I/Ohm   Significance   Time/s
   1      1.0000e+06       2.0275e+02       -7.4845e+01        0.999           0.0
   2      7.5549e+05       2.1427e+02       -6.2220e+01        0.999           1.0
   3      5.7077e+05       2.2280e+02       -5.1495e+01        0.999           1.5
   4      4.3121e+05       2.2783e+02       -4.1740e+01        1.000           2.3
   5      3.2578e+05       2.3186e+02       -3.4345e+01        1.000           3.0
   6      2.4612e+05       2.3503e+02       -2.8528e+01        1.000           3.4
   7      1.8594e+05       2.3742e+02       -2.3997e+01        1.000           3.9
   8      1.4048e+05       2.3954e+02       -2.0771e+01        1.000           4.4
   9      1.0613e+05       2.4099e+02       -1.8600e+01        1.000           4.8
  10      8.0180e+04       2.4261e+02       -1.7282e+01        1.000           5.3
  11      6.0575e+04       2.4378e+02       -1.7163e+01        1.000           5.7
  12      4.5764e+04       2.4543e+02       -1.7622e+01        1.000           6.2
  13      3.4574e+04       2.4727e+02       -1.8994e+01        1.000           6.7
  14      2.6121e+04       2.4917e+02       -2.0937e+01        1.000           7.1
  15      1.9734e+04       2.5131e+02       -2.3840e+01        1.000           7.6
  16      1.4909e+04       2.5385e+02       -2.7786e+01        1.000           8.1
  17      1.1263e+04       2.5693e+02       -3.2830e+01        1.000           8.5
  18      8.5095e+03       2.6045e+02       -3.9253e+01        1.000           9.0
  19      6.4288e+03       2.6475e+02       -4.7375e+01        1.000           9.5
  20      4.8569e+03       2.6988e+02       -5.7307e+01        1.000           9.9
  21      3.6694e+03       2.7605e+02       -6.9182e+01        1.000          10.4
  22      2.7722e+03       2.8306e+02       -8.4438e+01        1.000          10.9
  23      2.0944e+03       2.9158e+02       -1.0323e+02        0.999          11.4
  24      1.5823e+03       3.0210e+02       -1.2641e+02        1.000          11.8
  25      1.1954e+03       3.1505e+02       -1.5533e+02        1.000          12.3
  26      9.0311e+02       3.3162e+02       -1.9087e+02        1.000          12.8
  27      6.8229e+02       3.5133e+02       -2.3494e+02        1.000          13.2
  28      5.1546e+02       3.7607e+02       -2.8911e+02        1.000          13.7
  29      3.8943e+02       4.0778e+02       -3.5530e+02        0.999          14.2
  30      2.9421e+02       4.4708e+02       -4.3636e+02        0.999          14.7
  31      2.2227e+02       4.9417e+02       -5.3030e+02        0.999          15.4
  32      1.6793e+02       5.5684e+02       -6.4818e+02        0.999          16.1
  33      1.2687e+02       6.3571e+02       -7.9002e+02        0.999          16.5
  34      9.5846e+01       7.3572e+02       -9.5943e+02        0.999          17.1
  35      7.2411e+01       8.6221e+02       -1.1605e+03        0.999          17.7
  36      5.4092e+01       1.0267e+03       -1.4081e+03        0.999          19.1
  37      3.9533e+01       1.2533e+03       -1.7220e+03        0.999          20.9
  38      2.8174e+01       1.5671e+03       -2.1226e+03        0.999          22.3
  39      1.9503e+01       2.0106e+03       -2.6337e+03        0.999          23.9
  40      1.3058e+01       2.6360e+03       -3.2845e+03        0.999          25.8
  41      8.4196e+00       3.5227e+03       -4.1094e+03        0.999          28.1
  42      5.2123e+00       4.7565e+03       -5.1399e+03        0.999          31.2
  43      3.0979e+00       6.4463e+03       -6.4495e+03        0.999          35.2
  44      1.7783e+00       8.6974e+03       -8.1100e+03        0.999          40.2
  45      1.0000e+00       1.1584e+04       -1.0242e+04        0.998          44.8

File: 4.txt
File.......:  cell4ppochloranillitfsi10wt - SEP,07.2021

System.....:
Potential..:  0.016V
Current....:  -25.85nA
Temperature:  -0.7 +-0.2 C
Time.......:  16:42:42 - 16:43:30
Comment....:

              Main
time.......:  9480 s
Impedance samples

Lines:   45
Columns: 5

Number   Frequency/Hz   impedance R/Ohm   impedance I/Ohm   Significance   Time/s
   1      1.0000e+06       3.9595e+02       -3.6221e+02        0.999           0.0
   2      7.5549e+05       4.8555e+02       -3.3537e+02        0.998           1.3
   3      5.7077e+05       5.6745e+02       -3.0578e+02        0.998           1.8
   4      4.3121e+05       6.1880e+02       -2.4991e+02        0.999           2.5
   5      3.2578e+05       6.5810e+02       -2.0395e+02        1.000           3.3
   6      2.4612e+05       6.8291e+02       -1.6354e+02        1.000           3.7
   7      1.8594e+05       7.0082e+02       -1.3075e+02        0.999           4.1
   8      1.4048e+05       7.1271e+02       -1.0492e+02        0.999           4.6
   9      1.0613e+05       7.1390e+02       -8.2633e+01        1.000           5.3
  10      8.0180e+04       7.1929e+02       -6.8546e+01        1.000           6.0
  11      6.0575e+04       7.2264e+02       -5.8564e+01        1.000           6.5
  12      4.5764e+04       7.2622e+02       -5.2606e+01        1.000           6.9
  13      3.4574e+04       7.2918e+02       -4.9369e+01        1.000           7.4
  14      2.6121e+04       7.3270e+02       -4.8980e+01        1.000           7.9
  15      1.9734e+04       7.3632e+02       -5.1455e+01        1.000           8.3
  16      1.4909e+04       7.4044e+02       -5.6090e+01        1.000           8.8
  17      1.1263e+04       7.4542e+02       -6.3853e+01        1.000           9.2
  18      8.5095e+03       7.5155e+02       -7.4354e+01        1.000           9.7
  19      6.4288e+03       7.5886e+02       -8.8248e+01        1.000          10.2
  20      4.8569e+03       7.6809e+02       -1.0549e+02        1.000          10.7
  21      3.6694e+03       7.7961e+02       -1.2587e+02        1.000          11.1
  22      2.7722e+03       7.9312e+02       -1.5264e+02        1.000          11.6
  23      2.0944e+03       8.0986e+02       -1.8513e+02        1.000          12.1
  24      1.5823e+03       8.3014e+02       -2.2469e+02        1.000          12.6
  25      1.1954e+03       8.5474e+02       -2.7337e+02        0.999          13.0
  26      9.0311e+02       8.8473e+02       -3.3221e+02        0.999          13.5
  27      6.8229e+02       9.2049e+02       -4.0402e+02        0.999          14.0
  28      5.1546e+02       9.6345e+02       -4.9160e+02        1.000          14.4
  29      3.8943e+02       1.0155e+03       -5.9810e+02        1.000          14.9
  30      2.9421e+02       1.0762e+03       -7.2954e+02        1.000          15.4
  31      2.2227e+02       1.1495e+03       -8.9109e+02        0.999          15.9
  32      1.6793e+02       1.2359e+03       -1.0925e+03        0.999          16.3
  33      1.2687e+02       1.3402e+03       -1.3433e+03        0.999          16.8
  34      9.5846e+01       1.4685e+03       -1.6563e+03        0.999          17.3
  35      7.2411e+01       1.6284e+03       -2.0473e+03        0.999          17.9
  36      5.4092e+01       1.8327e+03       -2.5558e+03        0.999          19.3
  37      3.9533e+01       2.1295e+03       -3.2498e+03        0.999          21.1
  38      2.8174e+01       2.5690e+03       -4.2061e+03        0.999          22.5
  39      1.9503e+01       3.2501e+03       -5.5392e+03        0.999          24.1
  40      1.3058e+01       4.3394e+03       -7.3916e+03        0.999          26.4
  41      8.4196e+00       6.1354e+03       -9.9502e+03        0.999          29.1
  42      5.2123e+00       9.0617e+03       -1.3346e+04        0.999          31.9
  43      3.0979e+00       1.3603e+04       -1.7605e+04        0.999          35.3
  44      1.7783e+00       2.0127e+04       -2.2637e+04        0.999          40.3
  45      1.0000e+00       2.8526e+04       -2.8502e+04        1.000          44.9

File: 10.txt
File.......:  cell10ppochloranillitfsi10wt - SEP,07.2021

System.....:
Potential..:  -0.008V
Current....:  -72.298nA
Temperature:  -0.7 +-0.1 C
Time.......:  16:44:59 - 16:45:47
Comment....:

              Main
time.......:  9480 s
Impedance samples

Lines:   45
Columns: 5

Number   Frequency/Hz   impedance R/Ohm   impedance I/Ohm   Significance   Time/s
   1      1.0000e+06       2.6237e+02       -1.3333e+02        0.999           0.0
   2      7.5549e+05       2.8719e+02       -1.1262e+02        0.999           1.0
   3      5.7077e+05       3.0551e+02       -9.3832e+01        0.999           1.5
   4      4.3121e+05       3.1597e+02       -7.4104e+01        1.000           2.3
   5      3.2578e+05       3.2397e+02       -5.9731e+01        1.000           3.0
   6      2.4612e+05       3.2915e+02       -4.8169e+01        1.000           3.4
   7      1.8594e+05       3.3261e+02       -3.8731e+01        1.000           3.9
   8      1.4048e+05       3.3568e+02       -3.1949e+01        1.000           4.4
   9      1.0613e+05       3.3743e+02       -2.6885e+01        1.000           4.8
  10      8.0180e+04       3.3934e+02       -2.3280e+01        1.000           5.3
  11      6.0575e+04       3.4028e+02       -2.1809e+01        1.000           5.7
  12      4.5764e+04       3.4199e+02       -2.1022e+01        1.000           6.2
  13      3.4574e+04       3.4384e+02       -2.1590e+01        1.000           6.7
  14      2.6121e+04       3.4552e+02       -2.2785e+01        1.000           7.1
  15      1.9734e+04       3.4761e+02       -2.5093e+01        1.000           7.6
  16      1.4909e+04       3.4999e+02       -2.8743e+01        1.000           8.1
  17      1.1263e+04       3.5315e+02       -3.3385e+01        1.000           8.5
  18      8.5095e+03       3.5652e+02       -3.9536e+01        1.000           9.0
  19      6.4288e+03       3.6084e+02       -4.7367e+01        1.000           9.5
  20      4.8569e+03       3.6608e+02       -5.6911e+01        1.000           9.9
  21      3.6694e+03       3.7265e+02       -6.7980e+01        1.000          10.4
  22      2.7722e+03       3.8037e+02       -8.2275e+01        1.000          10.9
  23      2.0944e+03       3.8977e+02       -9.9571e+01        1.000          11.4
  24      1.5823e+03       4.0138e+02       -1.2056e+02        1.000          11.8
  25      1.1954e+03       4.1543e+02       -1.4625e+02        1.000          12.3
  26      9.0311e+02       4.3282e+02       -1.7717e+02        1.000          12.8
  27      6.8229e+02       4.5415e+02       -2.1465e+02        0.999          13.2
  28      5.1546e+02       4.8047e+02       -2.5972e+02        0.999          13.7
  29      3.8943e+02       5.1349e+02       -3.1338e+02        1.000          14.2
  30      2.9421e+02       5.5370e+02       -3.7777e+02        1.000          14.7
  31      2.2227e+02       5.9862e+02       -4.5020e+02        0.999          15.4
  32      1.6793e+02       6.5859e+02       -5.3951e+02        0.999          16.1
  33      1.2687e+02       7.3189e+02       -6.4457e+02        0.999          16.5
  34      9.5846e+01       8.2126e+02       -7.6730e+02        0.999          17.1
  35      7.2411e+01       9.2968e+02       -9.1021e+02        0.999          17.7
  36      5.4092e+01       1.0635e+03       -1.0838e+03        0.999          19.1
  37      3.9533e+01       1.2413e+03       -1.3014e+03        0.999          20.9
  38      2.8174e+01       1.4772e+03       -1.5789e+03        0.999          22.3
  39      1.9503e+01       1.7960e+03       -1.9362e+03        0.999          23.9
  40      1.3058e+01       2.2331e+03       -2.4034e+03        0.999          25.7
  41      8.4196e+00       2.8446e+03       -3.0211e+03        0.999          28.0
  42      5.2123e+00       3.7092e+03       -3.8408e+03        0.999          30.6
  43      3.0979e+00       4.9297e+03       -4.9261e+03        1.000          34.0
  44      1.7783e+00       6.6313e+03       -6.3331e+03        0.999          40.9
  45      1.0000e+00       8.9034e+03       -8.1247e+03        1.000          45.4