Folder: GlassyIonicConductorDatabase/database/experiments/MU/normal/1117_ppo_chloranil_lifsi/80/eis_data

Note: README.md
# GlassyIonicConductorDatabase

- Contains daily experimental data of polymeric ionic conductors
  
  - Process (as flowchart), structure, measurements, and properties

- Data are processed by machine learning tools

# Requirements

- Check for env. yml

- This database is processed by "FlowMater", which can treat graph data.
  
  - Visit the following URL for the latest version.
  
  - https://github.com/KanHatakeyama/FlowMater2

# Related paper

- TBD

# History

- version 2022.1.18: initial version

# Author

- Kan Hatakeyama-Sato
- Waseda University
- [Kan Hatakeyama](https://kanhatakeyama.github.io/)
- [satokan@toki.waseda](mailto:satokan@toki.waseda).(japan)

File: 1.txt
File.......:  cell1ppocllifsi30wt - NOV,18.2021

System.....:
Potential..:  0.010V
Current....:  -29.803nA
Temperature:  -0.8 +-0.0 C
Time.......:  14:15:02 - 14:15:51
Comment....:

              Main
time.......:  13080 s
Impedance samples

Lines:   45
Columns: 5

Number   Frequency/Hz   impedance R/Ohm   impedance I/Ohm   Significance   Time/s
   1      1.0000e+06       1.4348e+02       -4.2152e+02        0.999           0.0
   2      7.5549e+05       2.0142e+02       -5.2442e+02        0.999           1.5
   3      5.7077e+05       2.5684e+02       -6.4354e+02        0.998           2.1
   4      4.3121e+05       3.6889e+02       -7.6682e+02        0.998           3.0
   5      3.2578e+05       4.9032e+02       -9.2160e+02        0.999           4.0
   6      2.4612e+05       6.4808e+02       -1.0943e+03        0.998           4.4
   7      1.8594e+05       8.4855e+02       -1.2816e+03        0.999           4.8
   8      1.4048e+05       1.0997e+03       -1.4706e+03        0.999           5.3
   9      1.0613e+05       1.4000e+03       -1.6579e+03        0.999           5.7
  10      8.0180e+04       1.7520e+03       -1.8263e+03        0.999           6.2
  11      6.0575e+04       2.1408e+03       -1.9598e+03        0.999           6.6
  12      4.5764e+04       2.5631e+03       -2.0563e+03        0.999           7.1
  13      3.4574e+04       2.9923e+03       -2.1180e+03        0.999           7.5
  14      2.6121e+04       3.4236e+03       -2.1366e+03        1.000           8.0
  15      1.9734e+04       3.8417e+03       -2.1302e+03        1.000           8.4
  16      1.4909e+04       4.2340e+03       -2.1093e+03        0.999           8.9
  17      1.1263e+04       4.6140e+03       -2.0864e+03        1.000           9.3
  18      8.5095e+03       4.9648e+03       -2.0655e+03        1.000           9.8
  19      6.4288e+03       5.3039e+03       -2.0649e+03        1.000          10.3
  20      4.8569e+03       5.6297e+03       -2.0839e+03        1.000          10.7
  21      3.6694e+03       5.9588e+03       -2.1180e+03        0.999          11.2
  22      2.7722e+03       6.2834e+03       -2.1928e+03        1.000          11.6
  23      2.0944e+03       6.6121e+03       -2.2971e+03        1.000          12.3
  24      1.5823e+03       6.9615e+03       -2.4431e+03        1.000          13.0
  25      1.1954e+03       7.3323e+03       -2.6339e+03        1.000          13.5
  26      9.0311e+02       7.7349e+03       -2.8675e+03        1.000          13.9
  27      6.8229e+02       8.1740e+03       -3.1519e+03        1.000          14.4
  28      5.1546e+02       8.6597e+03       -3.4901e+03        1.000          14.9
  29      3.8943e+02       9.2077e+03       -3.8800e+03        1.000          15.3
  30      2.9421e+02       9.8140e+03       -4.3372e+03        1.000          15.8
  31      2.2227e+02       1.0503e+04       -4.8542e+03        1.000          16.2
  32      1.6793e+02       1.1272e+04       -5.4537e+03        1.000          16.7
  33      1.2687e+02       1.2141e+04       -6.1340e+03        1.000          17.2
  34      9.5846e+01       1.3129e+04       -6.9021e+03        0.999          17.7
  35      7.2411e+01       1.4245e+04       -7.7602e+03        0.999          18.3
  36      5.4092e+01       1.5527e+04       -8.7913e+03        0.999          19.7
  37      3.9533e+01       1.7136e+04       -1.0008e+04        0.999          21.4
  38      2.8174e+01       1.9117e+04       -1.1508e+04        0.999          22.8
  39      1.9503e+01       2.1594e+04       -1.3357e+04        0.999          24.4
  40      1.3058e+01       2.4704e+04       -1.5714e+04        0.999          26.3
  41      8.4196e+00       2.8650e+04       -1.8805e+04        0.999          28.4
  42      5.2123e+00       3.3707e+04       -2.3072e+04        0.999          31.1
  43      3.0979e+00       4.0293e+04       -2.9220e+04        0.999          34.4
  44      1.7783e+00       4.9184e+04       -3.8362e+04        0.999          39.3
  45      1.0000e+00       6.1364e+04       -5.1680e+04        0.999          46.2

File: 3.txt
File.......:  cell3ppocllifsi30wt - NOV,18.2021

System.....:
Potential..:  0.005V
Current....:  -4.9131nA
Temperature:  -0.7 +-0.1 C
Time.......:  14:17:58 - 14:18:45
Comment....:

              Main
time.......:  13080 s
Impedance samples

Lines:   45
Columns: 5

Number   Frequency/Hz   impedance R/Ohm   impedance I/Ohm   Significance   Time/s
   1      1.0000e+06       4.4320e+01       -6.7738e+02        0.998           0.0
   2      7.5549e+05       6.1513e+01       -8.8761e+02        0.996           1.8
   3      5.7077e+05       6.6069e+01       -1.1637e+03        0.996           2.3
   4      4.3121e+05       1.8217e+02       -1.4830e+03        0.997           3.3
   5      3.2578e+05       2.6067e+02       -1.9210e+03        0.998           4.2
   6      2.4612e+05       3.7373e+02       -2.4807e+03        0.998           4.7
   7      1.8594e+05       5.2657e+02       -3.1942e+03        0.998           5.1
   8      1.4048e+05       7.6319e+02       -4.1138e+03        0.998           5.5
   9      1.0613e+05       1.0837e+03       -5.2642e+03        0.999           6.0
  10      8.0180e+04       1.5572e+03       -6.7317e+03        0.998           6.4
  11      6.0575e+04       2.3231e+03       -8.5196e+03        0.999           7.1
  12      4.5764e+04       3.2908e+03       -1.0740e+04        0.999           7.8
  13      3.4574e+04       4.6570e+03       -1.3436e+04        0.999           8.2
  14      2.6121e+04       6.5963e+03       -1.6608e+04        0.998           8.7
  15      1.9734e+04       9.2705e+03       -2.0267e+04        0.999           9.2
  16      1.4909e+04       1.2857e+04       -2.4310e+04        0.998           9.6
  17      1.1263e+04       1.7562e+04       -2.8545e+04        0.999          10.1
  18      8.5095e+03       2.3414e+04       -3.2730e+04        0.999          10.5
  19      6.4288e+03       3.0419e+04       -3.6533e+04        0.999          11.0
  20      4.8569e+03       3.8349e+04       -3.9616e+04        0.999          11.4
  21      3.6694e+03       4.7090e+04       -4.1759e+04        0.999          11.9
  22      2.7722e+03       5.5950e+04       -4.3106e+04        0.999          12.3
  23      2.0944e+03       6.4987e+04       -4.3464e+04        1.000          13.0
  24      1.5823e+03       7.3471e+04       -4.3484e+04        1.000          13.7
  25      1.1954e+03       8.1534e+04       -4.3252e+04        0.999          14.2
  26      9.0311e+02       8.9228e+04       -4.2943e+04        1.000          14.7
  27      6.8229e+02       9.6582e+04       -4.2802e+04        0.999          15.1
  28      5.1546e+02       1.0373e+05       -4.2961e+04        1.000          15.6
  29      3.8943e+02       1.1083e+05       -4.3385e+04        0.999          16.0
  30      2.9421e+02       1.1790e+05       -4.4338e+04        1.000          16.5
  31      2.2227e+02       1.2515e+05       -4.5650e+04        1.000          17.0
  32      1.6793e+02       1.3261e+05       -4.7518e+04        1.000          17.4
  33      1.2687e+02       1.4043e+05       -4.9884e+04        1.000          17.9
  34      9.5846e+01       1.4869e+05       -5.2702e+04        1.000          18.4
  35      7.2411e+01       1.5760e+05       -5.5964e+04        1.000          19.0
  36      5.4092e+01       1.6777e+05       -6.0344e+04        1.000          20.4
  37      3.9533e+01       1.7895e+05       -6.4743e+04        1.000          22.1
  38      2.8174e+01       1.9265e+05       -7.0434e+04        1.000          23.6
  39      1.9503e+01       2.0885e+05       -7.7045e+04        1.000          25.2
  40      1.3058e+01       2.2819e+05       -8.5092e+04        1.000          27.0
  41      8.4196e+00       2.5179e+05       -9.4841e+04        1.000          29.2
  42      5.2123e+00       2.8070e+05       -1.0705e+05        1.000          31.8
  43      3.0979e+00       3.1672e+05       -1.2212e+05        1.000          35.1
  44      1.7783e+00       3.6133e+05       -1.4015e+05        1.000          40.0
  45      1.0000e+00       4.1488e+05       -1.6076e+05        1.000          44.6

File: 10.txt
File.......:  cell10ppocllifsi30wt - NOV,18.2021

System.....:
Potential..:  0.022V
Current....:  -15.801nA
Temperature:  -0.7 +-0.1 C
Time.......:  14:21:29 - 14:22:17
Comment....:

              Main
time.......:  13080 s
Impedance samples

Lines:   45
Columns: 5

Number   Frequency/Hz   impedance R/Ohm   impedance I/Ohm   Significance   Time/s
   1      1.0000e+06       1.1596e+02       -5.7621e+02        0.999           0.0
   2      7.5549e+05       1.7739e+02       -7.3534e+02        0.997           1.5
   3      5.7077e+05       2.3383e+02       -9.3776e+02        0.998           2.1
   4      4.3121e+05       3.7950e+02       -1.1465e+03        0.998           3.0
   5      3.2578e+05       5.2979e+02       -1.4232e+03        0.998           4.0
   6      2.4612e+05       7.3758e+02       -1.7478e+03        0.999           4.4
   7      1.8594e+05       1.0137e+03       -2.1207e+03        0.998           4.8
   8      1.4048e+05       1.3932e+03       -2.5327e+03        0.999           5.3
   9      1.0613e+05       1.8774e+03       -2.9741e+03        0.999           5.7
  10      8.0180e+04       2.4935e+03       -3.4097e+03        0.998           6.2
  11      6.0575e+04       3.2155e+03       -3.8002e+03        0.999           6.6
  12      4.5764e+04       4.0519e+03       -4.1224e+03        0.999           7.1
  13      3.4574e+04       4.9508e+03       -4.3659e+03        0.999           7.5
  14      2.6121e+04       5.9024e+03       -4.4674e+03        0.999           8.2
  15      1.9734e+04       6.8185e+03       -4.5245e+03        0.999           8.9
  16      1.4909e+04       7.7036e+03       -4.5178e+03        0.999           9.4
  17      1.1263e+04       8.5468e+03       -4.4823e+03        1.000           9.8
  18      8.5095e+03       9.3439e+03       -4.4403e+03        0.999          10.3
  19      6.4288e+03       1.0103e+04       -4.4143e+03        1.000          10.7
  20      4.8569e+03       1.0835e+04       -4.4072e+03        1.000          11.2
  21      3.6694e+03       1.1555e+04       -4.4300e+03        1.000          11.6
  22      2.7722e+03       1.2257e+04       -4.5148e+03        1.000          12.1
  23      2.0944e+03       1.2964e+04       -4.6511e+03        0.999          12.6
  24      1.5823e+03       1.3681e+04       -4.8504e+03        0.999          13.0
  25      1.1954e+03       1.4419e+04       -5.1309e+03        1.000          13.5
  26      9.0311e+02       1.5193e+04       -5.4914e+03        0.999          13.9
  27      6.8229e+02       1.6014e+04       -5.9533e+03        1.000          14.4
  28      5.1546e+02       1.6897e+04       -6.5277e+03        1.000          14.9
  29      3.8943e+02       1.7880e+04       -7.2167e+03        1.000          15.3
  30      2.9421e+02       1.8953e+04       -8.0605e+03        1.000          15.8
  31      2.2227e+02       2.0172e+04       -9.0453e+03        1.000          16.2
  32      1.6793e+02       2.1537e+04       -1.0224e+04        1.000          16.7
  33      1.2687e+02       2.3093e+04       -1.1595e+04        1.000          17.2
  34      9.5846e+01       2.4891e+04       -1.3174e+04        0.999          17.7
  35      7.2411e+01       2.6942e+04       -1.4967e+04        0.999          18.3
  36      5.4092e+01       2.9323e+04       -1.7134e+04        0.999          19.7
  37      3.9533e+01       3.2353e+04       -1.9785e+04        0.999          21.4
  38      2.8174e+01       3.6154e+04       -2.3072e+04        0.999          22.8
  39      1.9503e+01       4.1018e+04       -2.7229e+04        0.999          24.4
  40      1.3058e+01       4.7338e+04       -3.2611e+04        0.999          26.3
  41      8.4196e+00       5.5770e+04       -3.9656e+04        0.999          28.4
  42      5.2123e+00       6.7267e+04       -4.9048e+04        0.999          31.6
  43      3.0979e+00       8.3131e+04       -6.1397e+04        1.000          35.4
  44      1.7783e+00       1.0527e+05       -7.7521e+04        1.000          40.4
  45      1.0000e+00       1.3504e+05       -9.6972e+04        0.999          45.0