Folder: GlassyIonicConductorDatabase/database/experiments/HA/exp176_eis_pmps_chloranil_litfsi/eis_data

Note: README.md
# GlassyIonicConductorDatabase

- Contains daily experimental data of polymeric ionic conductors
  
  - Process (as flowchart), structure, measurements, and properties

- Data are processed by machine learning tools

# Requirements

- Check for env. yml

- This database is processed by "FlowMater", which can treat graph data.
  
  - Visit the following URL for the latest version.
  
  - https://github.com/KanHatakeyama/FlowMater2

# Related paper

- TBD

# History

- version 2022.1.18: initial version

# Author

- Kan Hatakeyama-Sato
- Waseda University
- [Kan Hatakeyama](https://kanhatakeyama.github.io/)
- [satokan@toki.waseda](mailto:satokan@toki.waseda).(japan)

File: 4.txt
File.......:  202108161250_c-261_eis_rt - AUG,16.2021

System.....:
Potential..:  -0.001V
Current....:  -55.95nA
Temperature:  -0.7 +-0.0 C
Time.......:  12:50:18 - 12:51:06
Comment....:

Impedance samples

Lines:   45
Columns: 5

Number   Frequency/Hz   impedance R/Ohm   impedance I/Ohm   Significance   Time/s
   1      1.0000e+06       1.6985e+01        1.1270e+00        0.999           0.0
   2      7.5549e+05       1.6570e+01        5.9499e-01        0.999           1.3
   3      5.7077e+05       1.6534e+01        1.1651e-01        0.999           1.8
   4      4.3121e+05       1.7750e+01       -3.4442e-01        1.000           2.5
   5      3.2578e+05       1.8858e+01       -8.0345e-01        1.000           3.2
   6      2.4612e+05       1.9423e+01       -1.2845e+00        1.000           3.7
   7      1.8594e+05       2.0012e+01       -1.8265e+00        1.000           4.1
   8      1.4048e+05       2.0591e+01       -2.4566e+00        1.000           4.6
   9      1.0613e+05       2.0097e+01       -3.2084e+00        1.000           5.0
  10      8.0180e+04       2.0482e+01       -4.1204e+00        1.000           5.5
  11      6.0575e+04       2.1264e+01       -5.2573e+00        1.000           5.9
  12      4.5764e+04       2.2205e+01       -6.6405e+00        1.000           6.3
  13      3.4574e+04       2.2804e+01       -8.3808e+00        1.000           6.8
  14      2.6121e+04       2.3100e+01       -1.0522e+01        0.999           7.3
  15      1.9734e+04       2.3817e+01       -1.3232e+01        1.000           7.7
  16      1.4909e+04       2.3930e+01       -1.6654e+01        1.000           8.2
  17      1.1263e+04       2.4813e+01       -2.1045e+01        1.000           8.6
  18      8.5095e+03       2.7094e+01       -2.6626e+01        0.999           9.1
  19      6.4288e+03       3.1417e+01       -3.3818e+01        0.999           9.6
  20      4.8569e+03       3.2892e+01       -4.2985e+01        0.998          10.0
  21      3.6694e+03       3.5069e+01       -5.4676e+01        0.999          10.5
  22      2.7722e+03       4.3126e+01       -7.0316e+01        0.999          11.1
  23      2.0944e+03       4.6006e+01       -8.9625e+01        1.000          11.8
  24      1.5823e+03       5.0677e+01       -1.1428e+02        0.998          12.3
  25      1.1954e+03       6.0745e+01       -1.4571e+02        0.997          12.8
  26      9.0311e+02       6.7331e+01       -1.8572e+02        0.999          13.2
  27      6.8229e+02       7.9475e+01       -2.3653e+02        0.997          13.7
  28      5.1546e+02       9.4979e+01       -3.0088e+02        0.997          14.1
  29      3.8943e+02       1.1806e+02       -3.8228e+02        0.997          14.6
  30      2.9421e+02       1.4971e+02       -4.8445e+02        0.998          15.1
  31      2.2227e+02       1.8936e+02       -6.1225e+02        0.998          15.5
  32      1.6793e+02       2.4342e+02       -7.6536e+02        0.997          16.2
  33      1.2687e+02       3.1530e+02       -9.6091e+02        0.997          16.9
  34      9.5846e+01       4.0984e+02       -1.2027e+03        0.997          17.4
  35      7.2411e+01       5.3106e+02       -1.4983e+03        0.997          18.1
  36      5.4092e+01       6.9550e+02       -1.8751e+03        0.997          19.5
  37      3.9533e+01       9.3404e+02       -2.3743e+03        0.997          21.3
  38      2.8174e+01       1.2768e+03       -3.0459e+03        0.997          22.8
  39      1.9503e+01       1.7773e+03       -3.9594e+03        0.997          24.4
  40      1.3058e+01       2.5235e+03       -5.2239e+03        0.996          26.3
  41      8.4196e+00       3.6575e+03       -6.9972e+03        0.996          29.0
  42      5.2123e+00       5.4117e+03       -9.5302e+03        0.996          32.2
  43      3.0979e+00       8.1386e+03       -1.3109e+04        0.995          35.6
  44      1.7783e+00       1.2360e+04       -1.8163e+04        0.995          40.6
  45      1.0000e+00       1.8540e+04       -2.4940e+04        0.994          45.2

File: 10.txt
File.......:  202108161304_c-262_eis_rt - AUG,16.2021

System.....:
Potential..:  0.004V
Current....:  1.2856uA
Temperature:  -0.6 +-0.1 C
Time.......:  13:04:14 - 13:05:00
Comment....:

Impedance samples

Lines:   45
Columns: 5

Number   Frequency/Hz   impedance R/Ohm   impedance I/Ohm   Significance   Time/s
   1      1.0000e+06       9.1483e+01       -4.4404e+02        0.996           0.0
   2      7.5549e+05       1.4955e+02       -5.6878e+02        0.998           1.8
   3      5.7077e+05       2.2897e+02       -7.2188e+02        0.995           2.3
   4      4.3121e+05       3.7709e+02       -8.6757e+02        0.997           3.3
   5      3.2578e+05       5.6532e+02       -1.0350e+03        0.998           4.2
   6      2.4612e+05       8.2155e+02       -1.1869e+03        0.999           4.7
   7      1.8594e+05       1.1340e+03       -1.3019e+03        0.999           5.1
   8      1.4048e+05       1.4876e+03       -1.3451e+03        0.999           5.5
   9      1.0613e+05       1.8331e+03       -1.2907e+03        0.999           6.0
  10      8.0180e+04       2.1405e+03       -1.1663e+03        0.999           6.4
  11      6.0575e+04       2.3653e+03       -9.9328e+02        1.000           6.9
  12      4.5764e+04       2.5394e+03       -8.2026e+02        0.999           7.3
  13      3.4574e+04       2.6607e+03       -6.6138e+02        1.000           7.8
  14      2.6121e+04       2.7444e+03       -5.2476e+02        1.000           8.2
  15      1.9734e+04       2.8078e+03       -4.1231e+02        1.000           8.7
  16      1.4909e+04       2.8370e+03       -3.1908e+02        1.000           9.1
  17      1.1263e+04       2.8605e+03       -2.4572e+02        1.000           9.6
  18      8.5095e+03       2.8732e+03       -1.8896e+02        1.000          10.1
  19      6.4288e+03       2.8839e+03       -1.4621e+02        1.000          10.5
  20      4.8569e+03       2.8911e+03       -1.1300e+02        1.000          11.0
  21      3.6694e+03       2.8895e+03       -8.2265e+01        1.000          11.4
  22      2.7722e+03       2.8995e+03       -6.3478e+01        1.000          11.9
  23      2.0944e+03       2.9110e+03       -4.8259e+01        1.000          12.4
  24      1.5823e+03       2.9046e+03       -3.5602e+01        1.000          12.8
  25      1.1954e+03       2.9161e+03       -2.7771e+01        1.000          13.3
  26      9.0311e+02       2.9318e+03       -2.0846e+01        1.000          13.7
  27      6.8229e+02       2.9361e+03       -1.6421e+01        1.000          14.2
  28      5.1546e+02       2.9406e+03       -1.3301e+01        1.000          14.7
  29      3.8943e+02       2.9442e+03       -8.9097e+00        1.000          15.1
  30      2.9421e+02       2.9530e+03       -6.9404e+00        1.000          15.6
  31      2.2227e+02       2.9543e+03       -3.2318e+00        1.000          16.0
  32      1.6793e+02       2.9775e+03       -2.2307e+00        1.000          16.5
  33      1.2687e+02       2.9727e+03       -1.9567e+00        1.000          16.9
  34      9.5846e+01       2.9895e+03       -6.3988e-01        1.000          17.5
  35      7.2411e+01       3.0140e+03        6.6041e-01        1.000          18.0
  36      5.4092e+01       3.0589e+03       -5.7064e+00        1.000          19.5
  37      3.9533e+01       3.0651e+03       -3.9473e+00        1.000          21.2
  38      2.8174e+01       3.1019e+03       -4.1580e+00        1.000          22.6
  39      1.9503e+01       3.1036e+03       -3.4095e+00        1.000          24.2
  40      1.3058e+01       3.1741e+03       -2.8290e+00        1.000          26.1
  41      8.4196e+00       3.3074e+03       -2.7617e+00        1.000          28.2
  42      5.2123e+00       3.3688e+03       -2.2521e+00        1.000          30.9
  43      3.0979e+00       3.3929e+03        1.0162e+00        1.000          34.2
  44      1.7783e+00       3.4053e+03       -1.3849e+00        1.000          39.1
  45      1.0000e+00       3.4238e+03       -3.5622e+00        0.999          43.7