Folder: GlassyIonicConductorDatabase/database/experiments/HA/exp177_eis_pmps_chloranil_litfsi/eis_data

Note: README.md
# GlassyIonicConductorDatabase

- Contains daily experimental data of polymeric ionic conductors
  
  - Process (as flowchart), structure, measurements, and properties

- Data are processed by machine learning tools

# Requirements

- Check for env. yml

- This database is processed by "FlowMater", which can treat graph data.
  
  - Visit the following URL for the latest version.
  
  - https://github.com/KanHatakeyama/FlowMater2

# Related paper

- TBD

# History

- version 2022.1.18: initial version

# Author

- Kan Hatakeyama-Sato
- Waseda University
- [Kan Hatakeyama](https://kanhatakeyama.github.io/)
- [satokan@toki.waseda](mailto:satokan@toki.waseda).(japan)

File: 5.txt
File.......:  202108170850_c-264_eis_rt - AUG,17.2021

System.....:
Potential..:  0.010V
Current....:  -118.39nA
Temperature:  -0.7 +-0.2 C
Time.......:  08:50:45 - 08:51:32
Comment....:

Impedance samples

Lines:   45
Columns: 5

Number   Frequency/Hz   impedance R/Ohm   impedance I/Ohm   Significance   Time/s
   1      1.0000e+06       9.0272e+01       -4.5809e+02        0.997           0.0
   2      7.5549e+05       1.5245e+02       -5.9546e+02        0.998           1.3
   3      5.7077e+05       2.3717e+02       -7.4711e+02        0.996           1.8
   4      4.3121e+05       4.1266e+02       -9.0183e+02        0.997           2.8
   5      3.2578e+05       6.1979e+02       -1.0626e+03        0.998           3.7
   6      2.4612e+05       8.9638e+02       -1.1945e+03        0.999           4.1
   7      1.8594e+05       1.2178e+03       -1.2599e+03        0.999           4.6
   8      1.4048e+05       1.5581e+03       -1.2469e+03        0.998           5.0
   9      1.0613e+05       1.8573e+03       -1.1652e+03        0.999           5.5
  10      8.0180e+04       2.1085e+03       -1.0307e+03        0.999           5.9
  11      6.0575e+04       2.2947e+03       -8.8943e+02        0.999           6.4
  12      4.5764e+04       2.4313e+03       -7.4513e+02        1.000           6.8
  13      3.4574e+04       2.5306e+03       -6.2667e+02        1.000           7.3
  14      2.6121e+04       2.6037e+03       -5.2333e+02        1.000           7.7
  15      1.9734e+04       2.6594e+03       -4.4269e+02        1.000           8.2
  16      1.4909e+04       2.7029e+03       -3.8119e+02        1.000           8.6
  17      1.1263e+04       2.7418e+03       -3.3536e+02        1.000           9.1
  18      8.5095e+03       2.7747e+03       -3.0365e+02        1.000           9.5
  19      6.4288e+03       2.8062e+03       -2.8439e+02        1.000          10.0
  20      4.8569e+03       2.8370e+03       -2.7392e+02        1.000          10.5
  21      3.6694e+03       2.8700e+03       -2.6724e+02        1.000          10.9
  22      2.7722e+03       2.9026e+03       -2.7389e+02        1.000          11.4
  23      2.0944e+03       2.9373e+03       -2.8712e+02        1.000          11.8
  24      1.5823e+03       2.9749e+03       -3.0738e+02        1.000          12.3
  25      1.1954e+03       3.0158e+03       -3.3798e+02        1.000          12.8
  26      9.0311e+02       3.0617e+03       -3.7601e+02        1.000          13.2
  27      6.8229e+02       3.1129e+03       -4.2514e+02        1.000          13.7
  28      5.1546e+02       3.1720e+03       -4.8544e+02        1.000          14.1
  29      3.8943e+02       3.2417e+03       -5.5535e+02        1.000          14.6
  30      2.9421e+02       3.3215e+03       -6.4064e+02        1.000          15.1
  31      2.2227e+02       3.4152e+03       -7.3811e+02        1.000          15.5
  32      1.6793e+02       3.5235e+03       -8.5489e+02        1.000          16.0
  33      1.2687e+02       3.6500e+03       -9.9026e+02        1.000          16.4
  34      9.5846e+01       3.8000e+03       -1.1464e+03        1.000          17.0
  35      7.2411e+01       3.9745e+03       -1.3236e+03        1.000          17.5
  36      5.4092e+01       4.1797e+03       -1.5451e+03        1.000          18.9
  37      3.9533e+01       4.4499e+03       -1.8110e+03        1.000          20.7
  38      2.8174e+01       4.7979e+03       -2.1409e+03        1.000          22.1
  39      1.9503e+01       5.2530e+03       -2.5546e+03        0.999          23.7
  40      1.3058e+01       5.8553e+03       -3.0795e+03        0.999          25.6
  41      8.4196e+00       6.6558e+03       -3.7529e+03        0.998          28.2
  42      5.2123e+00       7.7519e+03       -4.6342e+03        0.998          31.3
  43      3.0979e+00       9.2464e+03       -5.7794e+03        0.997          34.6
  44      1.7783e+00       1.1286e+04       -7.2580e+03        0.997          39.5
  45      1.0000e+00       1.3937e+04       -9.0972e+03        0.995          44.1

File: 6.txt
File.......:  202108170855_c-265_eis_rt - AUG,17.2021

System.....:
Potential..:  -0.006V
Current....:  -244.43pA
Temperature:  -0.6 +-0.2 C
Time.......:  08:55:13 - 08:56:01
Comment....:

Impedance samples

Lines:   45
Columns: 5

Number   Frequency/Hz   impedance R/Ohm   impedance I/Ohm   Significance   Time/s
   1      1.0000e+06       4.3120e+00       -5.7725e+02        0.997           0.0
   2      7.5549e+05       1.2791e+01       -7.6200e+02        0.997           1.8
   3      5.7077e+05      -8.1853e+00       -1.0307e+03        0.994           2.3
   4      4.3121e+05       4.6985e+01       -1.3181e+03        0.996           3.3
   5      3.2578e+05       6.6244e+01       -1.7309e+03        0.998           4.2
   6      2.4612e+05       9.1032e+01       -2.2739e+03        0.998           4.6
   7      1.8594e+05       1.1813e+02       -2.9848e+03        0.998           5.0
   8      1.4048e+05       1.6942e+02       -3.9175e+03        0.998           5.5
   9      1.0613e+05       2.0450e+02       -5.1487e+03        0.998           5.9
  10      8.0180e+04       2.6942e+02       -6.7746e+03        0.998           6.3
  11      6.0575e+04       4.4095e+02       -8.8970e+03        0.998           7.0
  12      4.5764e+04       5.3889e+02       -1.1692e+04        0.998           7.6
  13      3.4574e+04       6.6297e+02       -1.5380e+04        0.998           8.1
  14      2.6121e+04       8.2944e+02       -2.0218e+04        0.998           8.5
  15      1.9734e+04       1.0504e+03       -2.6606e+04        0.997           8.9
  16      1.4909e+04       1.3454e+03       -3.5005e+04        0.999           9.4
  17      1.1263e+04       1.7277e+03       -4.6104e+04        0.999           9.8
  18      8.5095e+03       2.2596e+03       -6.0698e+04        0.998          10.3
  19      6.4288e+03       4.0561e+03       -8.0065e+04        1.000          10.9
  20      4.8569e+03       5.1611e+03       -1.0534e+05        0.997          11.6
  21      3.6694e+03       6.8407e+03       -1.3866e+05        0.998          12.0
  22      2.7722e+03       9.1641e+03       -1.8238e+05        0.998          12.5
  23      2.0944e+03       1.2762e+04       -2.4005e+05        0.999          12.9
  24      1.5823e+03       1.8250e+04       -3.1585e+05        0.998          13.4
  25      1.1954e+03       2.6546e+04       -4.1540e+05        0.997          13.8
  26      9.0311e+02       3.9665e+04       -5.4588e+05        0.998          14.2
  27      6.8229e+02       6.0683e+04       -7.1667e+05        0.999          14.7
  28      5.1546e+02       1.0882e+05       -9.3969e+05        0.999          15.4
  29      3.8943e+02       1.6344e+05       -1.2286e+06        0.997          16.0
  30      2.9421e+02       2.4917e+05       -1.6011e+06        0.998          16.5
  31      2.2227e+02       3.9505e+05       -2.0786e+06        0.999          16.9
  32      1.6793e+02       6.1584e+05       -2.6794e+06        0.999          17.3
  33      1.2687e+02       9.6635e+05       -3.4219e+06        0.998          17.8
  34      9.5846e+01       1.5633e+06       -4.3162e+06        0.997          18.4
  35      7.2411e+01       2.3406e+06       -5.2075e+06        0.997          18.9
  36      5.4092e+01       4.1011e+06       -6.4596e+06        0.997          20.4
  37      3.9533e+01       5.2229e+06       -7.3448e+06        0.997          22.2
  38      2.8174e+01       7.5993e+06       -7.5400e+06        0.988          24.0
  39      1.9503e+01       1.0138e+07       -7.6813e+06        0.993          26.1
  40      1.3058e+01       1.2504e+07       -6.8288e+06        0.994          27.9
  41      8.4196e+00       1.4489e+07       -5.7015e+06        0.990          30.1
  42      5.2123e+00       1.5937e+07       -4.4959e+06        0.997          32.7
  43      3.0979e+00       1.6956e+07       -3.4855e+06        0.998          36.0
  44      1.7783e+00       1.7731e+07       -2.7842e+06        0.998          40.9
  45      1.0000e+00       1.8354e+07       -2.4006e+06        0.999          45.5

File: 7.txt
File.......:  202108170859_c-266_eis_rt - AUG,17.2021

System.....:
Potential..:  -0.005V
Current....:  -24.524pA
Temperature:  -0.6 +-0.1 C
Time.......:  08:59:06 - 08:59:56
Comment....:

Impedance samples

Lines:   45
Columns: 5

Number   Frequency/Hz   impedance R/Ohm   impedance I/Ohm   Significance   Time/s
   1      1.0000e+06       5.8717e+00       -5.3200e+02        0.997           0.0
   2      7.5549e+05       5.5830e+00       -7.0049e+02        0.993           1.8
   3      5.7077e+05       1.0136e+00       -9.2368e+02        0.991           2.3
   4      4.3121e+05       4.4509e+01       -1.2210e+03        0.996           3.3
   5      3.2578e+05       6.2484e+01       -1.6021e+03        0.997           4.2
   6      2.4612e+05       8.6060e+01       -2.1051e+03        0.998           4.6
   7      1.8594e+05       1.0772e+02       -2.7624e+03        0.998           5.0
   8      1.4048e+05       1.5813e+02       -3.6269e+03        0.998           5.5
   9      1.0613e+05       1.8613e+02       -4.7661e+03        0.998           5.9
  10      8.0180e+04       2.3812e+02       -6.2800e+03        0.999           6.3
  11      6.0575e+04       4.0115e+02       -8.2419e+03        0.998           7.0
  12      4.5764e+04       4.8354e+02       -1.0830e+04        0.998           7.6
  13      3.4574e+04       5.7927e+02       -1.4238e+04        0.998           8.1
  14      2.6121e+04       7.2599e+02       -1.8731e+04        0.999           8.5
  15      1.9734e+04       8.9641e+02       -2.4653e+04        0.997           8.9
  16      1.4909e+04       1.1274e+03       -3.2447e+04        0.999           9.4
  17      1.1263e+04       1.4031e+03       -4.2739e+04        0.998           9.8
  18      8.5095e+03       1.7511e+03       -5.6294e+04        0.997          10.3
  19      6.4288e+03       2.1846e+03       -7.4155e+04        0.999          10.7
  20      4.8569e+03       3.8251e+03       -9.7831e+04        0.999          11.4
  21      3.6694e+03       4.7678e+03       -1.2891e+05        0.999          12.0
  22      2.7722e+03       5.9538e+03       -1.6982e+05        0.998          12.5
  23      2.0944e+03       7.6241e+03       -2.2377e+05        0.998          12.9
  24      1.5823e+03       1.0025e+04       -2.9490e+05        0.997          13.4
  25      1.1954e+03       1.3318e+04       -3.8875e+05        0.999          13.8
  26      9.0311e+02       1.8240e+04       -5.1217e+05        0.998          14.2
  27      6.8229e+02       2.5499e+04       -6.7471e+05        0.997          14.7
  28      5.1546e+02       4.9914e+04       -8.8951e+05        0.999          15.4
  29      3.8943e+02       6.7414e+04       -1.1700e+06        0.997          16.0
  30      2.9421e+02       9.2149e+04       -1.5403e+06        0.997          16.5
  31      2.2227e+02       1.3855e+05       -2.0199e+06        0.999          16.9
  32      1.6793e+02       1.9352e+05       -2.6589e+06        0.998          17.3
  33      1.2687e+02       2.8375e+05       -3.4914e+06        0.998          17.8
  34      9.5846e+01       4.6659e+05       -4.5423e+06        0.999          18.4
  35      7.2411e+01       6.1325e+05       -5.9808e+06        0.999          18.9
  36      5.4092e+01       1.7350e+06       -7.7242e+06        1.000          21.1
  37      3.9533e+01       1.9367e+06       -1.0813e+07        0.995          23.6
  38      2.8174e+01       3.1682e+06       -1.4034e+07        0.984          25.4
  39      1.9503e+01       5.7095e+06       -1.9515e+07        0.981          27.4
  40      1.3058e+01       1.0691e+07       -2.7293e+07        0.989          29.3
  41      8.4196e+00       1.9618e+07       -3.6047e+07        0.978          31.4
  42      5.2123e+00       3.5590e+07       -4.4361e+07        0.993          34.1
  43      3.0979e+00       5.7061e+07       -4.6904e+07        0.997          37.5
  44      1.7783e+00       7.7866e+07       -4.1628e+07        0.997          42.5
  45      1.0000e+00       9.2551e+07       -3.2343e+07        0.996          47.0