Folder: GlassyIonicConductorDatabase/program/database/experiments/MU/xrd/1102/parallel/1018/xrd

Note: README.md
# GlassyIonicConductorDatabase

- Contains daily experimental data of polymeric ionic conductors
  
  - Process (as flowchart), structure, measurements, and properties

- Data are processed by machine learning tools

# Requirements

- Check for env. yml

- This database is processed by "FlowMater", which can treat graph data.
  
  - Visit the following URL for the latest version.
  
  - https://github.com/KanHatakeyama/FlowMater2

# Related paper

- TBD

# History

- version 2022.1.18: initial version

# Author

- Kan Hatakeyama-Sato
- Waseda University
- [Kan Hatakeyama](https://kanhatakeyama.github.io/)
- [satokan@toki.waseda](mailto:satokan@toki.waseda).(japan)

File: 25.TXT
Sample
Comments
Filename	C:\Data\西出研\梅木\20211102オペ\LiFTFSI30wt_01_0001_0029-1_C_2θ.raw
Goniometer	SmartLab(In-plane)
Attachment	標準Zステージ
Monochromater	None
X	0
Y	0
Z	0.01652
ScanningMode	2Theta
ScanningType	Continuos Scanning
X-Ray	40kV/30mA
入射スリット	0.300mm
受光スリット1	20.000mm
受光スリット2	20.000mm
None
Start	5
Stop	60
Step	0.02
Speed	21.6746
Theta	0
5	5545.08
5.2	5256.08
5.4	6430.12
5.6	5545.08
5.8	5725.7
6	4804.53
6.2	5057.4
6.4	4930.97
6.6	4876.78
6.8	5436.71
7	5219.96
7.2	4804.53
7.4	5111.59
7.6	4768.41
7.8	4551.66
8	4533.6
8.2	5003.21
8.4	5436.71
8.6	4696.16
8.8	4750.34
9	4750.34
9.2	4569.72
9.4	4118.17
9.6	4298.79
9.8	4443.29
10	5219.96
10.2	4587.79
10.4	4840.66
10.6	4009.8
10.8	4894.84
11	4696.16
11.2	4678.1
11.4	4262.67
11.6	4208.48
11.8	4352.98
12	4750.34
12.2	4389.1
12.4	4425.23
12.6	4154.29
12.8	4623.91
13	4515.54
13.2	4045.92
13.4	4154.29
13.6	4262.67
13.8	4190.42
14	4118.17
14.2	4244.6
14.4	4082.05
14.6	4118.17
14.8	3955.61
15	4226.54
15.2	4045.92
15.4	3666.62
15.6	3630.49
15.8	4208.48
16	4136.23
16.2	3829.18
16.4	3485.99
16.6	4280.73
16.8	3558.24
17	4443.29
17.2	4479.41
17.4	4822.59
17.6	4461.35
17.8	3738.86
18	3793.05
18.2	6357.88
18.4	5165.77
18.6	3865.3
18.8	4154.29
19	5779.89
19.2	5852.14
19.4	5147.71
19.6	4172.36
19.8	4136.23
20	3540.18
20.2	3558.24
20.4	3594.37
20.6	3666.62
20.8	3648.55
21	3612.43
21.2	3702.74
21.4	3359.56
21.6	3883.36
21.8	3594.37
22	3413.75
22.2	3413.75
22.4	3233.12
22.6	3413.75
22.8	3395.68
23	3449.87
23.2	2871.88
23.4	3070.56
23.6	3142.81
23.8	3269.25
24	3774.99
24.2	3774.99
24.4	3124.75
24.6	3124.75
24.8	3106.69
25	2582.89
25.2	2637.07
25.4	2619.01
25.6	2944.13
25.8	3305.37
26	4063.98
26.2	4967.09
26.4	2745.45
26.6	2510.64
26.8	2167.46
27	2167.46
27.2	2004.9
27.4	2059.08
27.6	1878.46
27.8	2420.33
28	2041.02
28.2	2221.64
28.4	2221.64
28.6	2348.08
28.8	1752.03
29	1932.65
29.2	2348.08
29.4	2456.45
29.6	2275.83
29.8	1860.4
30	2113.27
30.2	1715.9
30.4	2257.77
30.6	1752.03
30.8	1860.4
31	1643.66
31.2	1733.97
31.4	1372.72
31.6	1824.28
31.8	1733.97
32	1715.9
32.2	1932.65
32.4	1426.91
32.6	1318.54
32.8	1589.47
33	1607.53
33.2	1354.66
33.4	1390.79
33.6	1752.03
33.8	1282.41
34	1246.29
34.2	1210.16
34.4	1481.1
34.6	1408.85
34.8	1282.41
35	1318.54
35.2	1390.79
35.4	1300.47
35.6	1354.66
35.8	1300.47
36	1426.91
36.2	1372.72
36.4	1463.03
36.6	1174.04
36.8	1174.04
37	1192.1
37.2	1246.29
37.4	939.232
37.6	1228.23
37.8	1047.6
38	1499.16
38.2	1300.47
38.4	957.294
38.6	1228.23
38.8	1083.73
39	1083.73
39.2	1210.16
39.4	1264.35
39.6	903.107
39.8	1210.16
40	1192.1
40.2	1192.1
40.4	1246.29
40.6	921.169
40.8	1011.48
41	1047.6
41.2	1192.1
41.4	1065.67
41.6	1101.79
41.8	1137.92
42	1029.54
42.2	1047.6
42.4	1011.48
42.6	1101.79
42.8	885.045
43	1119.85
43.2	1119.85
43.4	903.107
43.6	993.418
43.8	1011.48
44	903.107
44.2	866.983
44.4	1119.85
44.6	921.169
44.8	1047.6
45	921.169
45.2	1101.79
45.4	830.859
45.6	668.299
45.8	1029.54
46	903.107
46.2	903.107
46.4	794.734
46.6	921.169
46.8	1083.73
47	921.169
47.2	830.859
47.4	1083.73
47.6	885.045
47.8	596.051
48	903.107
48.2	487.678
48.4	668.299
48.6	866.983
48.8	1083.73
49	614.113
49.2	794.734
49.4	505.74
49.6	794.734
49.8	776.672
50	794.734
50.2	722.486
50.4	632.175
50.6	722.486
50.8	632.175
51	921.169
51.2	650.237
51.4	668.299
51.6	487.678
51.8	740.548
52	559.927
52.2	794.734
52.4	487.678
52.6	614.113
52.8	523.802
53	632.175
53.2	541.864
53.4	632.175
53.6	903.107
53.8	541.864
54	451.554
54.2	415.429
54.4	758.61
54.6	559.927
54.8	541.864
55	596.051
55.2	614.113
55.4	668.299
55.6	469.616
55.8	650.237
56	686.362
56.2	614.113
56.4	686.362
56.6	650.237
56.8	433.492
57	704.424
57.2	776.672
57.4	650.237
57.6	614.113
57.8	523.802
58	686.362
58.2	379.305
58.4	505.74
58.6	469.616
58.8	686.362
59	559.927
59.2	632.175
59.4	559.927
59.6	523.802
59.8	433.492
60	614.113
60	668.299

60	812.797
59.98	379.305
60	270.932

File: 50.TXT
Sample
Comments
Filename	C:\Data\西出研\梅木\20211102オペ\LiFTFSI30wt_02_0002_0049-1_C_2θ.raw
Goniometer	SmartLab(In-plane)
Attachment	標準Zステージ
Monochromater	None
X	0
Y	0
Z	0.01652
ScanningMode	2Theta
ScanningType	Continuos Scanning
X-Ray	40kV/30mA
入射スリット	0.300mm
受光スリット1	20.000mm
受光スリット2	20.000mm
None
Start	5
Stop	60
Step	0.02
Speed	21.6746
Theta	0
5	5346.4
5.2	5238.02
5.4	6032.76
5.6	5563.14
5.8	5292.21
6	5003.21
6.2	4804.53
6.4	5075.46
6.6	4822.59
6.8	5219.96
7	4967.09
7.2	4551.66
7.4	4894.84
7.6	4696.16
7.8	4912.9
8	4804.53
8.2	5003.21
8.4	5256.08
8.6	5165.77
8.8	4678.1
9	4407.16
9.2	4768.41
9.4	4660.03
9.6	4804.53
9.8	4443.29
10	4930.97
10.2	4172.36
10.4	4858.72
10.6	3955.61
10.8	4334.92
11	4407.16
11.2	4623.91
11.4	4208.48
11.6	4082.05
11.8	4822.59
12	4009.8
12.2	4352.98
12.4	4280.73
12.6	4714.22
12.8	4479.41
13	5147.71
13.2	5165.77
13.4	3955.61
13.6	4786.47
13.8	4082.05
14	4352.98
14.2	4226.54
14.4	3811.11
14.6	4190.42
14.8	4280.73
15	3702.74
15.2	3901.42
15.4	4190.42
15.6	3702.74
15.8	3774.99
16	4461.35
16.2	4461.35
16.4	4352.98
16.6	4100.11
16.8	3702.74
17	3756.93
17.2	5454.77
17.4	4443.29
17.6	3774.99
17.8	3449.87
18	4280.73
18.2	6773.31
18.4	4967.09
18.6	3973.67
18.8	4118.17
19	6791.37
19.2	5743.76
19.4	5238.02
19.6	3973.67
19.8	4172.36
20	3793.05
20.2	3847.24
20.4	3720.8
20.6	3612.43
20.8	3485.99
21	3540.18
21.2	3395.68
21.4	3431.81
21.6	3973.67
21.8	3395.68
22	3106.69
22.2	3287.31
22.4	3088.63
22.6	2998.32
22.8	3269.25
23	3449.87
23.2	2944.13
23.4	2799.63
23.6	3142.81
23.8	3359.56
24	3793.05
24.2	3413.75
24.4	3413.75
24.6	3251.19
24.8	2944.13
25	2582.89
25.2	2871.88
25.4	2781.57
25.6	2962.19
25.8	3793.05
26	4226.54
26.2	4009.8
26.4	3142.81
26.6	2510.64
26.8	2059.08
27	2113.27
27.2	2438.39
27.4	2203.58
27.6	1950.71
27.8	2167.46
28	1770.09
28.2	2275.83
28.4	1733.97
28.6	2022.96
28.8	2004.9
29	1661.72
29.2	2113.27
29.4	2510.64
29.6	1896.53
29.8	1553.34
30	2022.96
30.2	1679.78
30.4	1517.22
30.6	1932.65
30.8	1679.78
31	2095.21
31.2	1679.78
31.4	1715.9
31.6	1517.22
31.8	1715.9
32	2059.08
32.2	1733.97
32.4	1661.72
32.6	1246.29
32.8	1553.34
33	1571.41
33.2	1571.41
33.4	1300.47
33.6	1192.1
33.8	1336.6
34	1408.85
34.2	1463.03
34.4	1192.1
34.6	1625.59
34.8	1065.67
35	1318.54
35.2	1155.98
35.4	1192.1
35.6	1318.54
35.8	1011.48
36	1246.29
36.2	1318.54
36.4	1264.35
36.6	1246.29
36.8	1065.67
37	1318.54
37.2	1264.35
37.4	1047.6
37.6	1192.1
37.8	1318.54
38	1029.54
38.2	1155.98
38.4	1029.54
38.6	1336.6
38.8	1354.66
39	1101.79
39.2	1155.98
39.4	1155.98
39.6	903.107
39.8	1029.54
40	1137.92
40.2	1047.6
40.4	1119.85
40.6	939.232
40.8	758.61
41	1101.79
41.2	1228.23
41.4	993.418
41.6	776.672
41.8	1119.85
42	1047.6
42.2	1011.48
42.4	1029.54
42.6	1119.85
42.8	1101.79
43	939.232
43.2	1318.54
43.4	1155.98
43.6	1101.79
43.8	993.418
44	993.418
44.2	1083.73
44.4	1029.54
44.6	812.797
44.8	957.294
45	993.418
45.2	1029.54
45.4	1119.85
45.6	1119.85
45.8	939.232
46	975.356
46.2	957.294
46.4	1011.48
46.6	975.356
46.8	1192.1
47	993.418
47.2	758.61
47.4	939.232
47.6	885.045
47.8	1011.48
48	921.169
48.2	776.672
48.4	812.797
48.6	794.734
48.8	740.548
49	704.424
49.2	668.299
49.4	650.237
49.6	776.672
49.8	866.983
50	794.734
50.2	632.175
50.4	866.983
50.6	722.486
50.8	668.299
51	650.237
51.2	758.61
51.4	812.797
51.6	794.734
51.8	614.113
52	523.802
52.2	704.424
52.4	559.927
52.6	722.486
52.8	686.362
53	487.678
53.2	686.362
53.4	577.989
53.6	523.802
53.8	596.051
54	541.864
54.2	686.362
54.4	686.362
54.6	650.237
54.8	668.299
55	523.802
55.2	632.175
55.4	686.362
55.6	650.237
55.8	487.678
56	830.859
56.2	668.299
56.4	686.362
56.6	577.989
56.8	577.989
57	307.056
57.2	704.424
57.4	397.367
57.6	487.678
57.8	523.802
58	415.429
58.2	596.051
58.4	505.74
58.6	740.548
58.8	577.989
59	505.74
59.2	559.927
59.4	632.175
59.6	650.237
59.8	523.802
60	505.74

270.932
59.96	469.616
59.98	379.305
60	361.243

File: 80.TXT
Sample
Comments
Filename	C:\Data\西出研\梅木\20211102オペ\LiFTFSI30wt_03_0003_0079-1_C_2θ.raw
Goniometer	SmartLab(In-plane)
Attachment	標準Zステージ
Monochromater	None
X	0
Y	0
Z	0.01652
ScanningMode	2Theta
ScanningType	Continuos Scanning
X-Ray	40kV/30mA
入射スリット	0.300mm
受光スリット1	20.000mm
受光スリット2	20.000mm
None
Start	5
Stop	60
Step	0.02
Speed	21.6746
Theta	0
5	5978.57
5.2	5888.26
5.4	5454.77
5.6	5490.89
5.8	5364.46
6	5274.15
6.2	5256.08
6.4	5021.28
6.6	4804.53
6.8	4930.97
7	5328.33
7.2	4858.72
7.4	4840.66
7.6	5165.77
7.8	4425.23
8	5346.4
8.2	4678.1
8.4	4208.48
8.6	5238.02
8.8	5093.53
9	4262.67
9.2	4443.29
9.4	4190.42
9.6	4533.6
9.8	4587.79
10	4280.73
10.2	4569.72
10.4	4732.28
10.6	4840.66
10.8	4641.97
11	4768.41
11.2	4461.35
11.4	4371.04
11.6	4316.85
11.8	4154.29
12	4786.47
12.2	4696.16
12.4	4461.35
12.6	4316.85
12.8	4425.23
13	4190.42
13.2	4605.85
13.4	4226.54
13.6	4226.54
13.8	3919.49
14	4082.05
14.2	4334.92
14.4	4172.36
14.6	4479.41
14.8	3702.74
15	3955.61
15.2	3829.18
15.4	4280.73
15.6	4298.79
15.8	3594.37
16	3720.8
16.2	4100.11
16.4	3937.55
16.6	3648.55
16.8	4497.47
17	4045.92
17.2	5779.89
17.4	3973.67
17.6	4118.17
17.8	3522.12
18	3973.67
18.2	6646.87
18.4	5888.26
18.6	3504.06
18.8	4461.35
19	5942.45
19.2	6466.25
19.4	4894.84
19.6	4949.03
19.8	3467.93
20	3901.42
20.2	3323.44
20.4	3847.24
20.6	3883.36
20.8	3865.3
21	3359.56
21.2	3485.99
21.4	4100.11
21.6	3738.86
21.8	3666.62
22	3666.62
22.2	3666.62
22.4	3648.55
22.6	3124.75
22.8	3106.69
23	3251.19
23.2	3467.93
23.4	3251.19
23.6	3955.61
23.8	3937.55
24	4063.98
24.2	3558.24
24.4	3178.94
24.6	2998.32
24.8	2835.76
25	2799.63
25.2	2781.57
25.4	3034.44
25.6	2528.7
25.8	3522.12
26	4623.91
26.2	3413.75
26.4	2474.51
26.6	1986.84
26.8	2402.27
27	2167.46
27.2	2257.77
27.4	2257.77
27.6	2004.9
27.8	2022.96
28	2456.45
28.2	2239.71
28.4	2221.64
28.6	1752.03
28.8	2131.33
29	1788.15
29.2	1679.78
29.4	2149.4
29.6	1914.59
29.8	2022.96
30	1571.41
30.2	1481.1
30.4	1535.28
30.6	1553.34
30.8	2167.46
31	1950.71
31.2	1625.59
31.4	1390.79
31.6	1643.66
31.8	1535.28
32	1535.28
32.2	1679.78
32.4	1481.1
32.6	1535.28
32.8	1589.47
33	1517.22
33.2	1246.29
33.4	1390.79
33.6	1372.72
33.8	1571.41
34	1499.16
34.2	1444.97
34.4	1354.66
34.6	1282.41
34.8	1228.23
35	1553.34
35.2	1444.97
35.4	1101.79
35.6	1174.04
35.8	1426.91
36	1354.66
36.2	1354.66
36.4	1192.1
36.6	1137.92
36.8	1264.35
37	1083.73
37.2	1300.47
37.4	1264.35
37.6	1264.35
37.8	1246.29
38	1065.67
38.2	1065.67
38.4	1192.1
38.6	1390.79
38.8	993.418
39	975.356
39.2	1174.04
39.4	957.294
39.6	1192.1
39.8	1047.6
40	1246.29
40.2	1228.23
40.4	1246.29
40.6	903.107
40.8	1119.85
41	1065.67
41.2	1264.35
41.4	1192.1
41.6	1119.85
41.8	1119.85
42	848.921
42.2	1192.1
42.4	939.232
42.6	1047.6
42.8	1228.23
43	957.294
43.2	1029.54
43.4	830.859
43.6	957.294
43.8	812.797
44	1174.04
44.2	848.921
44.4	993.418
44.6	812.797
44.8	903.107
45	885.045
45.2	993.418
45.4	975.356
45.6	1029.54
45.8	939.232
46	776.672
46.2	939.232
46.4	957.294
46.6	885.045
46.8	957.294
47	812.797
47.2	885.045
47.4	939.232
47.6	993.418
47.8	704.424
48	812.797
48.2	577.989
48.4	830.859
48.6	939.232
48.8	993.418
49	668.299
49.2	614.113
49.4	668.299
49.6	686.362
49.8	704.424
50	614.113
50.2	830.859
50.4	686.362
50.6	812.797
50.8	632.175
51	668.299
51.2	740.548
51.4	632.175
51.6	614.113
51.8	794.734
52	632.175
52.2	776.672
52.4	740.548
52.6	596.051
52.8	776.672
53	758.61
53.2	650.237
53.4	686.362
53.6	505.74
53.8	469.616
54	704.424
54.2	614.113
54.4	650.237
54.6	505.74
54.8	451.554
55	704.424
55.2	451.554
55.4	469.616
55.6	577.989
55.8	559.927
56	614.113
56.2	812.797
56.4	577.989
56.6	559.927
56.8	596.051
57	523.802
57.2	668.299
57.4	686.362
57.6	451.554
57.8	577.989
58	921.169
58.2	614.113
58.4	559.927
58.6	505.74
58.8	487.678
59	487.678
59.2	577.989
59.4	343.181
59.6	614.113
59.8	523.802
60	668.299
60	505.74