Folder: GlassyIonicConductorDatabase/database/experiments/MU/normal/1011_ppo_bq_liftfsi/eis_data

Note: README.md
# GlassyIonicConductorDatabase

- Contains daily experimental data of polymeric ionic conductors
  
  - Process (as flowchart), structure, measurements, and properties

- Data are processed by machine learning tools

# Requirements

- Check for env. yml

- This database is processed by "FlowMater", which can treat graph data.
  
  - Visit the following URL for the latest version.
  
  - https://github.com/KanHatakeyama/FlowMater2

# Related paper

- TBD

# History

- version 2022.1.18: initial version

# Author

- Kan Hatakeyama-Sato
- Waseda University
- [Kan Hatakeyama](https://kanhatakeyama.github.io/)
- [satokan@toki.waseda](mailto:satokan@toki.waseda).(japan)

File: 1.txt
File.......:  cell1ppobqliftfsi30wt - OCT,12.2021

System.....:
Potential..:  0.037V
Current....:  -29.207nA
Temperature:  -0.7 +-0.1 C
Time.......:  16:16:17 - 16:17:06
Comment....:

Impedance samples

Lines:   45
Columns: 5

Number   Frequency/Hz   impedance R/Ohm   impedance I/Ohm   Significance   Time/s
   1      1.0000e+06       1.2442e+02       -6.5988e+02        0.999           0.0
   2      7.5549e+05       1.7760e+02       -8.4955e+02        0.997           1.5
   3      5.7077e+05       2.3179e+02       -1.0856e+03        0.994           2.1
   4      4.3121e+05       3.9423e+02       -1.3464e+03        0.998           3.0
   5      3.2578e+05       5.5913e+02       -1.6926e+03        0.997           4.0
   6      2.4612e+05       7.9848e+02       -2.1126e+03        0.999           4.4
   7      1.8594e+05       1.1460e+03       -2.6105e+03        0.998           4.8
   8      1.4048e+05       1.6344e+03       -3.1540e+03        0.998           5.3
   9      1.0613e+05       2.3303e+03       -3.7110e+03        0.998           5.7
  10      8.0180e+04       3.2283e+03       -4.2076e+03        0.998           6.2
  11      6.0575e+04       4.2967e+03       -4.5403e+03        0.999           6.6
  12      4.5764e+04       5.5020e+03       -4.6341e+03        0.999           7.1
  13      3.4574e+04       6.6933e+03       -4.4310e+03        0.999           7.8
  14      2.6121e+04       7.7112e+03       -4.0422e+03        1.000           8.5
  15      1.9734e+04       8.5270e+03       -3.5418e+03        1.000           8.9
  16      1.4909e+04       9.1361e+03       -3.0082e+03        0.999           9.4
  17      1.1263e+04       9.5739e+03       -2.5186e+03        1.000           9.8
  18      8.5095e+03       9.8826e+03       -2.1003e+03        1.000          10.3
  19      6.4288e+03       1.0103e+04       -1.7695e+03        1.000          10.7
  20      4.8569e+03       1.0266e+04       -1.5139e+03        1.000          11.2
  21      3.6694e+03       1.0406e+04       -1.3185e+03        1.000          11.6
  22      2.7722e+03       1.0520e+04       -1.2052e+03        1.000          12.1
  23      2.0944e+03       1.0629e+04       -1.1462e+03        1.000          12.6
  24      1.5823e+03       1.0739e+04       -1.1355e+03        1.000          13.0
  25      1.1954e+03       1.0854e+04       -1.1786e+03        1.000          13.5
  26      9.0311e+02       1.0984e+04       -1.2613e+03        1.000          13.9
  27      6.8229e+02       1.1129e+04       -1.3933e+03        1.000          14.4
  28      5.1546e+02       1.1295e+04       -1.5725e+03        1.000          14.9
  29      3.8943e+02       1.1494e+04       -1.7931e+03        1.000          15.3
  30      2.9421e+02       1.1718e+04       -2.0780e+03        1.000          15.8
  31      2.2227e+02       1.1985e+04       -2.4161e+03        1.000          16.2
  32      1.6793e+02       1.2290e+04       -2.8402e+03        1.000          16.7
  33      1.2687e+02       1.2649e+04       -3.3519e+03        1.000          17.2
  34      9.5846e+01       1.3077e+04       -3.9667e+03        1.000          17.7
  35      7.2411e+01       1.3582e+04       -4.7030e+03        1.000          18.3
  36      5.4092e+01       1.4187e+04       -5.6545e+03        1.000          19.7
  37      3.9533e+01       1.5007e+04       -6.8677e+03        1.000          21.4
  38      2.8174e+01       1.6094e+04       -8.4867e+03        1.000          22.8
  39      1.9503e+01       1.7598e+04       -1.0677e+04        0.999          24.4
  40      1.3058e+01       1.9738e+04       -1.3691e+04        0.999          26.3
  41      8.4196e+00       2.2870e+04       -1.7886e+04        0.999          28.4
  42      5.2123e+00       2.7567e+04       -2.3760e+04        0.999          31.1
  43      3.0979e+00       3.4649e+04       -3.1923e+04        0.998          34.4
  44      1.7783e+00       4.5197e+04       -4.3031e+04        0.998          39.3
  45      1.0000e+00       5.9964e+04       -5.7592e+04        0.998          46.2

File: 3.txt
File.......:  cell3ppobqliftfsi30wt - OCT,12.2021

System.....:
Potential..:  -0.079V
Current....:  7.2005nA
Temperature:  -0.7 +-0.1 C
Time.......:  16:19:47 - 16:20:35
Comment....:

Impedance samples

Lines:   45
Columns: 5

Number   Frequency/Hz   impedance R/Ohm   impedance I/Ohm   Significance   Time/s
   1      1.0000e+06      -2.5151e+01       -1.0222e+03        0.997           0.0
   2      7.5549e+05      -2.8985e+01       -1.3596e+03        0.997           1.8
   3      5.7077e+05      -9.9753e+01       -1.7821e+03        0.995           2.3
   4      4.3121e+05       6.2752e+01       -2.3491e+03        0.998           3.3
   5      3.2578e+05       9.3639e+01       -3.0978e+03        0.998           4.2
   6      2.4612e+05       1.8110e+02       -4.0634e+03        0.998           4.7
   7      1.8594e+05       2.3909e+02       -5.3154e+03        0.998           5.1
   8      1.4048e+05       4.0503e+02       -7.0092e+03        0.996           5.5
   9      1.0613e+05       4.8226e+02       -9.1495e+03        0.998           6.0
  10      8.0180e+04       9.0354e+02       -1.2045e+04        0.999           6.7
  11      6.0575e+04       1.1830e+03       -1.5764e+04        0.999           7.4
  12      4.5764e+04       1.6020e+03       -2.0643e+04        0.998           7.8
  13      3.4574e+04       2.2348e+03       -2.7057e+04        0.999           8.2
  14      2.6121e+04       3.2142e+03       -3.5363e+04        0.999           8.7
  15      1.9734e+04       4.6592e+03       -4.6329e+04        0.999           9.2
  16      1.4909e+04       6.8488e+03       -6.0554e+04        0.998           9.6
  17      1.1263e+04       1.0417e+04       -7.9055e+04        0.998          10.1
  18      8.5095e+03       1.7876e+04       -1.0300e+05        0.997          10.8
  19      6.4288e+03       2.6692e+04       -1.3343e+05        0.998          11.5
  20      4.8569e+03       4.0842e+04       -1.7209e+05        0.998          11.9
  21      3.6694e+03       6.3428e+04       -2.1959e+05        0.999          12.4
  22      2.7722e+03       9.8363e+04       -2.7626e+05        0.997          12.8
  23      2.0944e+03       1.5122e+05       -3.3990e+05        0.998          13.3
  24      1.5823e+03       2.2742e+05       -4.0488e+05        0.999          13.7
  25      1.1954e+03       3.2821e+05       -4.6079e+05        1.000          14.2
  26      9.0311e+02       4.5098e+05       -4.9682e+05        0.999          14.7
  27      6.8229e+02       5.8117e+05       -5.0268e+05        0.999          15.1
  28      5.1546e+02       7.1229e+05       -4.7033e+05        0.999          15.8
  29      3.8943e+02       8.1525e+05       -4.2785e+05        0.999          16.5
  30      2.9421e+02       8.9637e+05       -3.7764e+05        1.000          17.0
  31      2.2227e+02       9.5444e+05       -3.3041e+05        1.000          17.4
  32      1.6793e+02       1.0010e+06       -2.8465e+05        0.999          17.9
  33      1.2687e+02       1.0359e+06       -2.5200e+05        1.000          18.3
  34      9.5846e+01       1.0615e+06       -2.2732e+05        1.000          18.9
  35      7.2411e+01       1.0847e+06       -2.1295e+05        1.000          19.4
  36      5.4092e+01       1.0941e+06       -1.9411e+05        1.000          20.8
  37      3.9533e+01       1.1405e+06       -2.1779e+05        0.999          22.6
  38      2.8174e+01       1.1676e+06       -2.2631e+05        0.998          24.0
  39      1.9503e+01       1.2076e+06       -2.5005e+05        0.998          25.6
  40      1.3058e+01       1.2602e+06       -2.8817e+05        0.999          27.5
  41      8.4196e+00       1.3250e+06       -3.4735e+05        0.998          29.6
  42      5.2123e+00       1.4158e+06       -4.3212e+05        0.999          32.3
  43      3.0979e+00       1.5443e+06       -5.5476e+05        1.000          35.6
  44      1.7783e+00       1.7206e+06       -7.2783e+05        0.999          40.5
  45      1.0000e+00       1.9639e+06       -9.6184e+05        0.999          45.1

File: 4.txt
File.......:  cell4ppobqliftfsi30wt - OCT,12.2021

System.....:
Potential..:  0.018V
Current....:  -2.6936nA
Temperature:  -0.7 +-0.1 C
Time.......:  16:23:25 - 16:24:13
Comment....:

Impedance samples

Lines:   45
Columns: 5

Number   Frequency/Hz   impedance R/Ohm   impedance I/Ohm   Significance   Time/s
   1      1.0000e+06       7.1784e+00       -9.1260e+02        0.996           0.0
   2      7.5549e+05       2.2594e+01       -1.2227e+03        0.997           1.8
   3      5.7077e+05      -4.6403e+01       -1.5889e+03        0.992           2.3
   4      4.3121e+05       8.4309e+01       -2.0886e+03        0.998           3.3
   5      3.2578e+05       1.3421e+02       -2.7467e+03        0.997           4.2
   6      2.4612e+05       1.8137e+02       -3.6014e+03        0.999           4.7
   7      1.8594e+05       2.2664e+02       -4.7208e+03        0.998           5.1
   8      1.4048e+05       3.6335e+02       -6.1732e+03        0.997           5.5
   9      1.0613e+05       4.7751e+02       -8.0971e+03        0.998           6.0
  10      8.0180e+04       7.7980e+02       -1.0663e+04        0.998           6.7
  11      6.0575e+04       1.0447e+03       -1.3938e+04        0.998           7.3
  12      4.5764e+04       1.3827e+03       -1.8272e+04        0.998           7.8
  13      3.4574e+04       1.9015e+03       -2.3928e+04        0.998           8.2
  14      2.6121e+04       2.7222e+03       -3.1358e+04        0.999           8.7
  15      1.9734e+04       3.9779e+03       -4.1143e+04        0.998           9.2
  16      1.4909e+04       5.8635e+03       -5.3847e+04        0.999           9.6
  17      1.1263e+04       8.8750e+03       -7.0515e+04        0.998          10.1
  18      8.5095e+03       1.3722e+04       -9.2016e+04        0.998          10.5
  19      6.4288e+03       2.3220e+04       -1.1955e+05        0.999          11.2
  20      4.8569e+03       3.5916e+04       -1.5432e+05        0.999          11.9
  21      3.6694e+03       5.7053e+04       -1.9764e+05        0.998          12.4
  22      2.7722e+03       8.9769e+04       -2.4873e+05        0.999          12.8
  23      2.0944e+03       1.3984e+05       -3.0519e+05        0.998          13.3
  24      1.5823e+03       2.1160e+05       -3.6107e+05        0.999          13.7
  25      1.1954e+03       3.0560e+05       -4.0600e+05        0.999          14.2
  26      9.0311e+02       4.1751e+05       -4.2840e+05        0.999          14.7
  27      6.8229e+02       5.3121e+05       -4.2238e+05        0.998          15.1
  28      5.1546e+02       6.3460e+05       -3.9141e+05        0.999          15.6
  29      3.8943e+02       7.2115e+05       -3.3530e+05        0.999          16.3
  30      2.9421e+02       7.8072e+05       -2.8532e+05        0.999          17.0
  31      2.2227e+02       8.2282e+05       -2.3900e+05        1.000          17.4
  32      1.6793e+02       8.5154e+05       -1.9832e+05        0.999          17.9
  33      1.2687e+02       8.7291e+05       -1.6797e+05        0.999          18.3
  34      9.5846e+01       8.8709e+05       -1.4313e+05        1.000          18.9
  35      7.2411e+01       8.9893e+05       -1.2854e+05        1.000          19.4
  36      5.4092e+01       9.2886e+05       -1.2309e+05        0.999          20.8
  37      3.9533e+01       9.2141e+05       -1.1713e+05        1.000          22.6
  38      2.8174e+01       9.3884e+05       -1.2603e+05        0.999          24.0
  39      1.9503e+01       9.5551e+05       -1.4041e+05        0.999          25.6
  40      1.3058e+01       9.7855e+05       -1.6472e+05        0.999          27.5
  41      8.4196e+00       1.0114e+06       -2.0548e+05        0.999          29.6
  42      5.2123e+00       1.0586e+06       -2.6696e+05        1.000          32.2
  43      3.0979e+00       1.1303e+06       -3.6050e+05        1.000          35.6
  44      1.7783e+00       1.2381e+06       -4.9921e+05        1.000          40.5
  45      1.0000e+00       1.3981e+06       -6.9542e+05        0.999          45.0

File: 10.txt
File.......:  cell10ppobqliftfsi30wt - OCT,12.2021

System.....:
Potential..:  0.013V
Current....:  -5.6542nA
Temperature:  -0.8 +-0.2 C
Time.......:  16:21:41 - 16:22:29
Comment....:

Impedance samples

Lines:   45
Columns: 5

Number   Frequency/Hz   impedance R/Ohm   impedance I/Ohm   Significance   Time/s
   1      1.0000e+06       5.8005e+01       -8.2436e+02        0.997           0.0
   2      7.5549e+05       9.3344e+01       -1.0831e+03        0.998           1.5
   3      5.7077e+05       1.0637e+02       -1.3780e+03        0.996           2.1
   4      4.3121e+05       2.9421e+02       -1.7849e+03        0.997           3.0
   5      3.2578e+05       4.4654e+02       -2.3011e+03        0.997           4.0
   6      2.4612e+05       6.5970e+02       -2.9550e+03        0.997           4.4
   7      1.8594e+05       9.9722e+02       -3.7506e+03        0.996           4.8
   8      1.4048e+05       1.5007e+03       -4.7549e+03        0.998           5.3
   9      1.0613e+05       2.2450e+03       -5.9272e+03        0.998           5.7
  10      8.0180e+04       3.3640e+03       -7.2662e+03        0.998           6.2
  11      6.0575e+04       5.0738e+03       -8.5687e+03        0.999           6.9
  12      4.5764e+04       7.1708e+03       -9.7721e+03        0.999           7.5
  13      3.4574e+04       9.7496e+03       -1.0577e+04        0.999           8.0
  14      2.6121e+04       1.2561e+04       -1.0753e+04        0.999           8.5
  15      1.9734e+04       1.5292e+04       -1.0280e+04        1.000           8.9
  16      1.4909e+04       1.7641e+04       -9.2990e+03        0.999           9.4
  17      1.1263e+04       1.9493e+04       -8.0615e+03        1.000           9.8
  18      8.5095e+03       2.0839e+04       -6.7825e+03        1.000          10.3
  19      6.4288e+03       2.1766e+04       -5.6365e+03        1.000          10.7
  20      4.8569e+03       2.2406e+04       -4.6939e+03        1.000          11.2
  21      3.6694e+03       2.2878e+04       -3.8763e+03        1.000          11.6
  22      2.7722e+03       2.3210e+04       -3.3248e+03        1.000          12.1
  23      2.0944e+03       2.3476e+04       -2.9432e+03        1.000          12.6
  24      1.5823e+03       2.3710e+04       -2.7102e+03        1.000          13.0
  25      1.1954e+03       2.3930e+04       -2.6319e+03        1.000          13.5
  26      9.0311e+02       2.4160e+04       -2.6691e+03        1.000          13.9
  27      6.8229e+02       2.4407e+04       -2.8385e+03        1.000          14.4
  28      5.1546e+02       2.4684e+04       -3.1306e+03        1.000          14.9
  29      3.8943e+02       2.5018e+04       -3.5296e+03        1.000          15.3
  30      2.9421e+02       2.5392e+04       -4.0857e+03        1.000          15.8
  31      2.2227e+02       2.5838e+04       -4.7783e+03        1.000          16.2
  32      1.6793e+02       2.6357e+04       -5.6813e+03        1.000          16.7
  33      1.2687e+02       2.6973e+04       -6.8041e+03        1.000          17.1
  34      9.5846e+01       2.7726e+04       -8.1902e+03        1.000          17.7
  35      7.2411e+01       2.8623e+04       -9.8933e+03        1.000          18.3
  36      5.4092e+01       2.9722e+04       -1.2125e+04        1.000          19.7
  37      3.9533e+01       3.1207e+04       -1.5086e+04        1.000          21.4
  38      2.8174e+01       3.3259e+04       -1.9099e+04        1.000          22.8
  39      1.9503e+01       3.6129e+04       -2.4688e+04        1.000          24.4
  40      1.3058e+01       4.0242e+04       -3.2650e+04        0.999          26.3
  41      8.4196e+00       4.6325e+04       -4.4287e+04        0.999          28.4
  42      5.2123e+00       5.5539e+04       -6.1741e+04        0.999          31.6
  43      3.0979e+00       6.9888e+04       -8.8411e+04        0.998          35.4
  44      1.7783e+00       9.2574e+04       -1.2955e+05        0.998          40.4
  45      1.0000e+00       1.2761e+05       -1.9157e+05        0.997          44.9