Folder: GlassyIonicConductorDatabase/program/database/experiments/MU/normal/1004(1002)_ppo_bq_liftfsi/eis_data

Note: README.md
# GlassyIonicConductorDatabase

- Contains daily experimental data of polymeric ionic conductors
  
  - Process (as flowchart), structure, measurements, and properties

- Data are processed by machine learning tools

# Requirements

- Check for env. yml

- This database is processed by "FlowMater", which can treat graph data.
  
  - Visit the following URL for the latest version.
  
  - https://github.com/KanHatakeyama/FlowMater2

# Related paper

- TBD

# History

- version 2022.1.18: initial version

# Author

- Kan Hatakeyama-Sato
- Waseda University
- [Kan Hatakeyama](https://kanhatakeyama.github.io/)
- [satokan@toki.waseda](mailto:satokan@toki.waseda).(japan)

File: 2.txt
File.......:  cell2ppochloranilliftfsi - OCT,05.2021

System.....:
Potential..:  0.015V
Current....:  -34.339nA
Temperature:  -0.7 +-0.1 C
Time.......:  15:57:33 - 15:58:20
Comment....:

Impedance samples

Lines:   45
Columns: 5

Number   Frequency/Hz   impedance R/Ohm   impedance I/Ohm   Significance   Time/s
   1      1.0000e+06       7.9379e+01       -9.5059e+02        0.998           0.0
   2      7.5549e+05       1.6289e+02       -1.2563e+03        0.996           1.5
   3      5.7077e+05       3.5879e+02       -1.6110e+03        0.996           2.3
   4      4.3121e+05       5.8197e+02       -2.0258e+03        0.997           3.3
   5      3.2578e+05       9.4455e+02       -2.5200e+03        0.999           4.0
   6      2.4612e+05       1.4679e+03       -3.0466e+03        0.998           4.4
   7      1.8594e+05       2.1813e+03       -3.5559e+03        0.998           4.9
   8      1.4048e+05       3.1348e+03       -3.9286e+03        0.998           5.3
   9      1.0613e+05       4.1711e+03       -4.1104e+03        0.999           5.8
  10      8.0180e+04       5.2455e+03       -4.0354e+03        0.999           6.2
  11      6.0575e+04       6.1966e+03       -3.7406e+03        0.999           6.7
  12      4.5764e+04       7.0170e+03       -3.2434e+03        1.000           7.3
  13      3.4574e+04       7.5967e+03       -2.7710e+03        1.000           8.0
  14      2.6121e+04       8.0129e+03       -2.3200e+03        1.000           8.5
  15      1.9734e+04       8.3064e+03       -1.9369e+03        1.000           9.0
  16      1.4909e+04       8.5178e+03       -1.6257e+03        1.000           9.4
  17      1.1263e+04       8.6762e+03       -1.3910e+03        1.000           9.9
  18      8.5095e+03       8.8026e+03       -1.2231e+03        1.000          10.3
  19      6.4288e+03       8.9131e+03       -1.1160e+03        1.000          10.8
  20      4.8569e+03       9.0189e+03       -1.0546e+03        1.000          11.2
  21      3.6694e+03       9.1301e+03       -1.0217e+03        1.000          11.7
  22      2.7722e+03       9.2432e+03       -1.0436e+03        1.000          12.1
  23      2.0944e+03       9.3693e+03       -1.0970e+03        1.000          12.6
  24      1.5823e+03       9.5108e+03       -1.1809e+03        1.000          13.1
  25      1.1954e+03       9.6696e+03       -1.3022e+03        1.000          13.5
  26      9.0311e+02       9.8529e+03       -1.4511e+03        1.000          14.0
  27      6.8229e+02       1.0062e+04       -1.6372e+03        1.000          14.4
  28      5.1546e+02       1.0302e+04       -1.8589e+03        1.000          14.9
  29      3.8943e+02       1.0586e+04       -2.1105e+03        1.000          15.4
  30      2.9421e+02       1.0906e+04       -2.4099e+03        1.000          15.8
  31      2.2227e+02       1.1280e+04       -2.7439e+03        1.000          16.3
  32      1.6793e+02       1.1704e+04       -3.1381e+03        1.000          16.7
  33      1.2687e+02       1.2191e+04       -3.5858e+03        1.000          17.2
  34      9.5846e+01       1.2752e+04       -4.0918e+03        1.000          17.7
  35      7.2411e+01       1.3391e+04       -4.6637e+03        1.000          18.3
  36      5.4092e+01       1.4135e+04       -5.3603e+03        1.000          19.7
  37      3.9533e+01       1.5070e+04       -6.2020e+03        1.000          21.5
  38      2.8174e+01       1.6241e+04       -7.2578e+03        1.000          22.9
  39      1.9503e+01       1.7735e+04       -8.6098e+03        1.000          24.5
  40      1.3058e+01       1.9676e+04       -1.0387e+04        1.000          26.3
  41      8.4196e+00       2.2259e+04       -1.2763e+04        1.000          28.5
  42      5.2123e+00       2.5773e+04       -1.6012e+04        1.000          31.1
  43      3.0979e+00       3.0636e+04       -2.0484e+04        1.000          34.4
  44      1.7783e+00       3.7420e+04       -2.6622e+04        1.000          39.4
  45      1.0000e+00       4.6582e+04       -3.4797e+04        1.000          43.9

File: 3.txt
File.......:  cell3ppochloranilliftfsi - OCT,05.2021

System.....:
Potential..:  -0.006V
Current....:  -9.0503nA
Temperature:  -0.7 +-0.0 C
Time.......:  15:59:38 - 16:00:25
Comment....:

Impedance samples

Lines:   45
Columns: 5

Number   Frequency/Hz   impedance R/Ohm   impedance I/Ohm   Significance   Time/s
   1      1.0000e+06       1.3181e+01       -9.4169e+02        0.998           0.0
   2      7.5549e+05       4.6346e+01       -1.2609e+03        0.997           1.3
   3      5.7077e+05       1.1788e+02       -1.6447e+03        0.998           2.1
   4      4.3121e+05       2.3947e+02       -2.1424e+03        0.997           3.1
   5      3.2578e+05       4.0615e+02       -2.7940e+03        0.997           3.8
   6      2.4612e+05       6.5604e+02       -3.6117e+03        0.999           4.2
   7      1.8594e+05       1.0536e+03       -4.6398e+03        0.998           4.6
   8      1.4048e+05       1.7306e+03       -5.9149e+03        0.997           5.1
   9      1.0613e+05       2.6663e+03       -7.3748e+03        0.999           5.5
  10      8.0180e+04       4.2680e+03       -8.9966e+03        0.999           6.2
  11      6.0575e+04       6.2942e+03       -1.0593e+04        0.999           6.9
  12      4.5764e+04       8.9462e+03       -1.1950e+04        0.999           7.3
  13      3.4574e+04       1.2076e+04       -1.2746e+04        0.999           7.8
  14      2.6121e+04       1.5352e+04       -1.2806e+04        0.999           8.3
  15      1.9734e+04       1.8423e+04       -1.2197e+04        1.000           8.7
  16      1.4909e+04       2.0986e+04       -1.1141e+04        1.000           9.2
  17      1.1263e+04       2.3012e+04       -9.9351e+03        0.999           9.6
  18      8.5095e+03       2.4538e+04       -8.8088e+03        1.000          10.1
  19      6.4288e+03       2.5708e+04       -7.9031e+03        1.000          10.5
  20      4.8569e+03       2.6655e+04       -7.2491e+03        1.000          11.0
  21      3.6694e+03       2.7471e+04       -6.8283e+03        0.999          11.4
  22      2.7722e+03       2.8228e+04       -6.7227e+03        1.000          11.9
  23      2.0944e+03       2.8997e+04       -6.8629e+03        1.000          12.4
  24      1.5823e+03       2.9820e+04       -7.2325e+03        1.000          12.8
  25      1.1954e+03       3.0720e+04       -7.8523e+03        1.000          13.3
  26      9.0311e+02       3.1752e+04       -8.6868e+03        1.000          13.8
  27      6.8229e+02       3.2929e+04       -9.7729e+03        0.999          14.2
  28      5.1546e+02       3.4290e+04       -1.1107e+04        1.000          14.7
  29      3.8943e+02       3.5912e+04       -1.2682e+04        1.000          15.2
  30      2.9421e+02       3.7778e+04       -1.4568e+04        1.000          15.7
  31      2.2227e+02       3.9975e+04       -1.6720e+04        1.000          16.1
  32      1.6793e+02       4.2506e+04       -1.9253e+04        1.000          16.5
  33      1.2687e+02       4.5458e+04       -2.2151e+04        1.000          17.0
  34      9.5846e+01       4.8911e+04       -2.5459e+04        1.000          17.5
  35      7.2411e+01       5.2912e+04       -2.9190e+04        0.999          18.1
  36      5.4092e+01       5.7558e+04       -3.3804e+04        1.000          19.5
  37      3.9533e+01       6.3528e+04       -3.9190e+04        0.999          21.7
  38      2.8174e+01       7.1096e+04       -4.6025e+04        1.000          23.5
  39      1.9503e+01       8.0909e+04       -5.4600e+04        0.999          25.1
  40      1.3058e+01       9.3781e+04       -6.5583e+04        0.999          27.0
  41      8.4196e+00       1.1091e+05       -7.9798e+04        0.999          29.1
  42      5.2123e+00       1.3391e+05       -9.8425e+04        0.999          31.8
  43      3.0979e+00       1.6492e+05       -1.2312e+05        0.999          35.2
  44      1.7783e+00       2.0616e+05       -1.5593e+05        0.999          40.2
  45      1.0000e+00       2.5930e+05       -1.9964e+05        0.999          44.7

File: 4.txt
File.......:  cell4ppochloranilliftfsi - OCT,05.2021

System.....:
Potential..:  -0.013V
Current....:  -23.599nA
Temperature:  -0.7 +-0.2 C
Time.......:  16:03:01 - 16:03:48
Comment....:

Impedance samples

Lines:   45
Columns: 5

Number   Frequency/Hz   impedance R/Ohm   impedance I/Ohm   Significance   Time/s
   1      1.0000e+06       2.6885e+01       -8.9085e+02        0.998           0.0
   2      7.5549e+05       6.5700e+01       -1.1860e+03        0.996           1.5
   3      5.7077e+05       8.7517e+01       -1.5744e+03        0.995           2.1
   4      4.3121e+05       2.8946e+02       -2.0164e+03        0.997           3.0
   5      3.2578e+05       4.7411e+02       -2.5990e+03        0.998           4.0
   6      2.4612e+05       7.7595e+02       -3.3489e+03        0.998           4.4
   7      1.8594e+05       1.2003e+03       -4.2591e+03        0.998           4.8
   8      1.4048e+05       1.9411e+03       -5.3052e+03        0.997           5.3
   9      1.0613e+05       2.9445e+03       -6.5193e+03        0.999           5.7
  10      8.0180e+04       4.5718e+03       -7.6960e+03        0.999           6.4
  11      6.0575e+04       6.5193e+03       -8.6830e+03        0.999           7.1
  12      4.5764e+04       8.8431e+03       -9.2705e+03        0.999           7.5
  13      3.4574e+04       1.1314e+04       -9.2761e+03        0.999           8.0
  14      2.6121e+04       1.3632e+04       -8.7122e+03        0.999           8.5
  15      1.9734e+04       1.5561e+04       -7.7573e+03        1.000           8.9
  16      1.4909e+04       1.7016e+04       -6.6353e+03        1.000           9.4
  17      1.1263e+04       1.8061e+04       -5.5442e+03        1.000           9.8
  18      8.5095e+03       1.8774e+04       -4.5870e+03        0.999          10.3
  19      6.4288e+03       1.9269e+04       -3.8180e+03        1.000          10.7
  20      4.8569e+03       1.9614e+04       -3.2193e+03        1.000          11.2
  21      3.6694e+03       1.9893e+04       -2.7687e+03        1.000          11.6
  22      2.7722e+03       2.0115e+04       -2.4963e+03        1.000          12.1
  23      2.0944e+03       2.0322e+04       -2.3457e+03        1.000          12.6
  24      1.5823e+03       2.0530e+04       -2.3042e+03        1.000          13.0
  25      1.1954e+03       2.0748e+04       -2.3802e+03        1.000          13.5
  26      9.0311e+02       2.0996e+04       -2.5452e+03        1.000          13.9
  27      6.8229e+02       2.1278e+04       -2.8146e+03        1.000          14.4
  28      5.1546e+02       2.1607e+04       -3.1867e+03        1.000          14.9
  29      3.8943e+02       2.2010e+04       -3.6509e+03        1.000          15.3
  30      2.9421e+02       2.2477e+04       -4.2450e+03        1.000          15.8
  31      2.2227e+02       2.3049e+04       -4.9450e+03        1.000          16.2
  32      1.6793e+02       2.3718e+04       -5.8077e+03        1.000          16.7
  33      1.2687e+02       2.4519e+04       -6.8268e+03        1.000          17.2
  34      9.5846e+01       2.5485e+04       -8.0208e+03        1.000          17.7
  35      7.2411e+01       2.6628e+04       -9.3988e+03        1.000          18.3
  36      5.4092e+01       2.7990e+04       -1.1133e+04        1.000          19.7
  37      3.9533e+01       2.9810e+04       -1.3256e+04        1.000          21.4
  38      2.8174e+01       3.2147e+04       -1.5983e+04        1.000          22.8
  39      1.9503e+01       3.5241e+04       -1.9544e+04        1.000          24.4
  40      1.3058e+01       3.9415e+04       -2.4308e+04        0.999          26.3
  41      8.4196e+00       4.5152e+04       -3.0804e+04        0.999          28.4
  42      5.2123e+00       5.3201e+04       -3.9853e+04        0.999          31.1
  43      3.0979e+00       6.4599e+04       -5.2642e+04        1.000          35.0
  44      1.7783e+00       8.0919e+04       -7.0898e+04        0.999          40.6
  45      1.0000e+00       1.0359e+05       -9.6360e+04        0.999          45.2