Folder: GlassyIonicConductorDatabase/database/experiments/HA/exp163_eis_s88_pmps_chloranil_litfsi/eis_data

Note: README.md
# GlassyIonicConductorDatabase

- Contains daily experimental data of polymeric ionic conductors
  
  - Process (as flowchart), structure, measurements, and properties

- Data are processed by machine learning tools

# Requirements

- Check for env. yml

- This database is processed by "FlowMater", which can treat graph data.
  
  - Visit the following URL for the latest version.
  
  - https://github.com/KanHatakeyama/FlowMater2

# Related paper

- TBD

# History

- version 2022.1.18: initial version

# Author

- Kan Hatakeyama-Sato
- Waseda University
- [Kan Hatakeyama](https://kanhatakeyama.github.io/)
- [satokan@toki.waseda](mailto:satokan@toki.waseda).(japan)

File: 5.txt
File.......:  202108090850_c-234_eis_rt - AUG,09.2021

System.....:
Potential..:  0.064V
Current....:  29.34pA
Temperature:  -0.7 +-0.1 C
Time.......:  08:50:57 - 08:51:47
Comment....:

Impedance samples

Lines:   45
Columns: 5

Number   Frequency/Hz   impedance R/Ohm   impedance I/Ohm   Significance   Time/s
  1       1.0000e+06      -7.9654e+00       -7.1946e+02        0.994           0.0
  2       7.5549e+05       2.5624e+00       -9.6562e+02        0.997           1.8
  3       5.7077e+05      -2.7850e+01       -1.2607e+03        0.996           2.3
  4       4.3121e+05       4.9726e+01       -1.6647e+03        0.997           3.3
  5       3.2578e+05       7.6137e+01       -2.1925e+03        0.998           4.2
  6       2.4612e+05       1.1579e+02       -2.8782e+03        0.997           4.7
  7       1.8594e+05       1.4829e+02       -3.7837e+03        0.998           5.1
  8       1.4048e+05       1.6998e+02       -4.9630e+03        0.996           5.5
  9       1.0613e+05       2.3558e+02       -6.4902e+03        0.997           6.0
 10       8.0180e+04       2.8973e+02       -8.5647e+03        0.999           6.4
 11       6.0575e+04       5.7162e+02       -1.1254e+04        0.999           7.1
 12       4.5764e+04       6.4913e+02       -1.4791e+04        0.998           7.8
 13       3.4574e+04       7.8190e+02       -1.9446e+04        0.998           8.2
 14       2.6121e+04       9.6697e+02       -2.5588e+04        1.000           8.7
 15       1.9734e+04       1.2185e+03       -3.3710e+04        0.999           9.2
 16       1.4909e+04       1.4835e+03       -4.4329e+04        0.997           9.6
 17       1.1263e+04       1.8495e+03       -5.8361e+04        0.997          10.1
 18       8.5095e+03       2.4729e+03       -7.6951e+04        0.996          10.5
 19       6.4288e+03       4.4428e+03       -1.0150e+05        0.999          11.2
 20       4.8569e+03       5.1886e+03       -1.3351e+05        0.997          11.9
 21       3.6694e+03       6.6138e+03       -1.7604e+05        0.998          12.4
 22       2.7722e+03       8.2543e+03       -2.3182e+05        0.999          12.8
 23       2.0944e+03       1.0533e+04       -3.0541e+05        0.997          13.3
 24       1.5823e+03       1.3815e+04       -4.0242e+05        0.997          13.7
 25       1.1954e+03       1.7938e+04       -5.3051e+05        0.999          14.2
 26       9.0311e+02       2.4787e+04       -6.9966e+05        0.997          14.7
 27       6.8229e+02       5.3921e+04       -9.2280e+05        0.998          15.3
 28       5.1546e+02       6.7983e+04       -1.2160e+06        0.997          16.0
 29       3.8943e+02       9.0261e+04       -1.5936e+06        0.997          16.5
 30       2.9421e+02       1.1929e+05       -2.1144e+06        0.997          17.0
 31       2.2227e+02       1.5331e+05       -2.7335e+06        0.997          17.4
 32       1.6793e+02       2.5811e+05       -3.6293e+06        0.994          17.9
 33       1.2687e+02       4.2849e+05       -4.7601e+06        0.999          18.3
 34       9.5846e+01       2.1053e+05       -6.3188e+06        0.997          18.9
 35       7.2411e+01       4.3395e+05       -8.4585e+06        0.991          19.5
 36       5.4092e+01       1.8643e+06       -6.6840e+06        0.988          20.9
 37       3.9533e+01       2.6375e+06       -1.2519e+07        0.981          22.8
 38       2.8174e+01       2.4909e+06       -2.2609e+07        0.881          24.2
 39       1.9503e+01       4.6552e+06       -2.9605e+07        0.890          25.8
 40       1.3058e+01       8.2289e+06       -4.0611e+07        0.934          27.8
 41       8.4196e+00       1.6154e+07       -5.2201e+07        0.881          29.9
 42       5.2123e+00       2.7797e+07       -8.0167e+07        0.956          32.6
 43       3.0979e+00       5.6561e+07       -1.1423e+08        0.992          36.7
 44       1.7783e+00       9.8986e+07       -1.5797e+08        0.995          42.3
 45       1.0000e+00       1.6686e+08       -2.0522e+08        0.952          47.0

File: 6.txt
File.......:  202108090856_c-235_eis_rt - AUG,09.2021

System.....:
Potential..:  0.018V
Current....:  -6.9617pA
Temperature:  -0.7 +-0.1 C
Time.......:  08:56:46 - 08:57:37
Comment....:

Impedance samples

Lines:   45
Columns: 5

Number   Frequency/Hz   impedance R/Ohm   impedance I/Ohm   Significance   Time/s
   1      1.0000e+06      -6.9507e+00       -7.4698e+02        0.999           0.0
   2      7.5549e+05      -1.1657e+01       -9.8911e+02        0.995           1.8
   3      5.7077e+05      -8.1090e+00       -1.2939e+03        0.993           2.3
   4      4.3121e+05       5.1734e+01       -1.7110e+03        0.997           3.3
   5      3.2578e+05       8.2577e+01       -2.2532e+03        0.997           4.2
   6      2.4612e+05       1.1909e+02       -2.9619e+03        0.999           4.7
   7      1.8594e+05       1.5778e+02       -3.9147e+03        0.997           5.1
   8      1.4048e+05       2.1626e+02       -5.1224e+03        0.996           5.5
   9      1.0613e+05       2.4224e+02       -6.6813e+03        0.998           6.0
  10      8.0180e+04       3.2279e+02       -8.8382e+03        0.998           6.4
  11      6.0575e+04       5.8735e+02       -1.1581e+04        0.999           7.1
  12      4.5764e+04       6.7498e+02       -1.5230e+04        0.999           7.8
  13      3.4574e+04       8.3354e+02       -2.0010e+04        0.999           8.2
  14      2.6121e+04       1.0148e+03       -2.6309e+04        0.998           8.7
  15      1.9734e+04       1.2672e+03       -3.4651e+04        0.998           9.2
  16      1.4909e+04       1.5736e+03       -4.5586e+04        0.997           9.6
  17      1.1263e+04       2.0043e+03       -6.0071e+04        0.999          10.1
  18      8.5095e+03       2.5203e+03       -7.9075e+04        0.999          10.5
  19      6.4288e+03       4.6886e+03       -1.0441e+05        0.999          11.2
  20      4.8569e+03       5.8377e+03       -1.3739e+05        0.998          11.9
  21      3.6694e+03       7.1710e+03       -1.8116e+05        0.999          12.4
  22      2.7722e+03       9.0705e+03       -2.3863e+05        0.998          12.8
  23      2.0944e+03       1.1561e+04       -3.1398e+05        0.997          13.3
  24      1.5823e+03       1.5522e+04       -4.1429e+05        0.998          13.7
  25      1.1954e+03       1.9715e+04       -5.4492e+05        0.998          14.2
  26      9.0311e+02       2.7828e+04       -7.1867e+05        0.997          14.7
  27      6.8229e+02       6.0881e+04       -9.4871e+05        0.999          15.3
  28      5.1546e+02       7.8282e+04       -1.2453e+06        0.997          16.0
  29      3.8943e+02       1.0975e+05       -1.6426e+06        0.996          16.5
  30      2.9421e+02       1.5256e+05       -2.1515e+06        0.998          17.0
  31      2.2227e+02       2.3366e+05       -2.8071e+06        0.993          17.4
  32      1.6793e+02       3.2116e+05       -3.7144e+06        0.994          17.9
  33      1.2687e+02       4.2410e+05       -4.8696e+06        0.994          18.3
  34      9.5846e+01       5.9502e+05       -6.7283e+06        0.991          19.4
  35      7.2411e+01       1.0467e+06       -8.6522e+06        0.992          20.5
  36      5.4092e+01       4.5838e+06       -7.1094e+06        0.988          21.9
  37      3.9533e+01       3.5886e+06       -1.2528e+07        0.981          23.7
  38      2.8174e+01       6.7203e+06       -2.1314e+07        0.883          25.2
  39      1.9503e+01       1.0307e+07       -2.9019e+07        0.890          26.8
  40      1.3058e+01       1.4079e+07       -3.7584e+07        0.936          28.7
  41      8.4196e+00       2.7556e+07       -4.5774e+07        0.891          30.9
  42      5.2123e+00       4.4659e+07       -5.5589e+07        0.967          33.6
  43      3.0979e+00       6.9491e+07       -6.2829e+07        0.998          37.6
  44      1.7783e+00       9.7215e+07       -6.4177e+07        0.997          43.3
  45      1.0000e+00       1.2383e+08       -5.6035e+07        0.981          47.9

File: 7.txt
File.......:  202108090900_c-236_eis_rt - AUG,09.2021

System.....:
Potential..:  0.085V
Current....:  -24.878pA
Temperature:  -0.7 +-0.0 C
Time.......:  09:00:44 - 09:01:38
Comment....:

Impedance samples

Lines:   45
Columns: 5

Number   Frequency/Hz   impedance R/Ohm   impedance I/Ohm   Significance   Time/s
   1      1.0000e+06       1.0515e+01       -5.8903e+02        0.998           0.0
   2      7.5549e+05       1.7206e+01       -7.8495e+02        0.997           1.8
   3      5.7077e+05       5.2116e+00       -1.0449e+03        0.990           2.3
   4      4.3121e+05       5.8576e+01       -1.3456e+03        0.997           3.3
   5      3.2578e+05       7.6369e+01       -1.7707e+03        0.997           4.2
   6      2.4612e+05       1.0361e+02       -2.3110e+03        0.997           4.7
   7      1.8594e+05       1.3208e+02       -3.0515e+03        0.997           5.1
   8      1.4048e+05       1.5132e+02       -3.9802e+03        0.997           5.5
   9      1.0613e+05       2.2688e+02       -5.2508e+03        0.997           6.0
  10      8.0180e+04       2.8580e+02       -6.8841e+03        0.997           6.4
  11      6.0575e+04       3.4393e+02       -9.0150e+03        0.998           6.9
  12      4.5764e+04       5.5720e+02       -1.1894e+04        0.998           7.6
  13      3.4574e+04       6.6699e+02       -1.5642e+04        0.998           8.2
  14      2.6121e+04       8.2613e+02       -2.0583e+04        0.999           8.7
  15      1.9734e+04       1.0274e+03       -2.7083e+04        0.999           9.2
  16      1.4909e+04       1.2775e+03       -3.5601e+04        0.998           9.6
  17      1.1263e+04       1.6133e+03       -4.6902e+04        0.999          10.1
  18      8.5095e+03       1.9275e+03       -6.1818e+04        0.999          10.5
  19      6.4288e+03       2.4355e+03       -8.1242e+04        0.999          11.0
  20      4.8569e+03       4.1635e+03       -1.0723e+05        0.997          11.7
  21      3.6694e+03       5.2825e+03       -1.4140e+05        0.999          12.4
  22      2.7722e+03       6.3748e+03       -1.8635e+05        0.998          12.8
  23      2.0944e+03       8.2913e+03       -2.4544e+05        0.998          13.3
  24      1.5823e+03       1.0662e+04       -3.2331e+05        0.998          13.7
  25      1.1954e+03       1.2931e+04       -4.2569e+05        0.999          14.2
  26      9.0311e+02       1.8536e+04       -5.6216e+05        0.998          14.7
  27      6.8229e+02       2.4786e+04       -7.4026e+05        0.999          15.1
  28      5.1546e+02       4.9646e+04       -9.7742e+05        0.999          15.8
  29      3.8943e+02       6.2312e+04       -1.2838e+06        0.998          16.5
  30      2.9421e+02       8.3368e+04       -1.6955e+06        0.999          17.0
  31      2.2227e+02       9.1270e+04       -2.2057e+06        0.996          17.4
  32      1.6793e+02       1.7482e+05       -2.9295e+06        0.994          17.9
  33      1.2687e+02       2.3399e+05       -3.8663e+06        0.997          18.3
  34      9.5846e+01       4.4092e+05       -4.8624e+06        0.993          18.9
  35      7.2411e+01       5.5740e+05       -6.3183e+06        0.998          19.5
  36      5.4092e+01      -3.2889e+06       -8.3191e+06        0.994          21.7
  37      3.9533e+01       1.2162e+06       -1.0278e+07        0.986          24.3
  38      2.8174e+01       2.5600e+06       -1.7956e+07        0.895          25.7
  39      1.9503e+01       4.0182e+06       -2.4453e+07        0.909          27.4
  40      1.3058e+01       5.3923e+06       -3.2326e+07        0.940          29.2
  41      8.4196e+00       1.0040e+07       -5.2097e+07        0.894          31.4
  42      5.2123e+00       2.1921e+07       -7.4332e+07        0.960          34.1
  43      3.0979e+00       3.7768e+07       -1.1133e+08        0.997          38.8
  44      1.7783e+00       7.9093e+07       -1.6630e+08        0.987          47.0
  45      1.0000e+00       1.4463e+08       -2.3666e+08        0.953          51.7