Folder: GlassyIonicConductorDatabase/program/database/experiments/MU/xrd/1102/parallel/1029/xrd

Note: README.md
# GlassyIonicConductorDatabase

- Contains daily experimental data of polymeric ionic conductors
  
  - Process (as flowchart), structure, measurements, and properties

- Data are processed by machine learning tools

# Requirements

- Check for env. yml

- This database is processed by "FlowMater", which can treat graph data.
  
  - Visit the following URL for the latest version.
  
  - https://github.com/KanHatakeyama/FlowMater2

# Related paper

- TBD

# History

- version 2022.1.18: initial version

# Author

- Kan Hatakeyama-Sato
- Waseda University
- [Kan Hatakeyama](https://kanhatakeyama.github.io/)
- [satokan@toki.waseda](mailto:satokan@toki.waseda).(japan)

File: 50.TXT
Sample
Comments
Filename	C:\Data\西出研\梅木\20211102オペ\LiFTFSI20wt_02_0002_0049-1_C_2θ.raw
Goniometer	SmartLab(In-plane)
Attachment	標準Zステージ
Monochromater	None
X	0
Y	0
Z	0.01716
ScanningMode	2Theta
ScanningType	Continuos Scanning
X-Ray	40kV/30mA
入射スリット	0.300mm
受光スリット1	20.000mm
受光スリット2	20.000mm
None
Start	5
Stop	60
Step	0.02
Speed	21.6746
Theta	0
5	7893.16
5.2	6791.37
5.4	7206.8
5.6	5924.38
5.8	6448.19
6	6412.06
6.2	5671.51
6.4	5472.83
6.6	5779.89
6.8	5942.45
7	6032.76
7.2	5906.32
7.4	5743.76
7.6	5346.4
7.8	5797.95
8	5599.27
8.2	5472.83
8.4	5653.45
8.6	5454.77
8.8	5581.2
9	5238.02
9.2	5797.95
9.4	5310.27
9.6	5057.4
9.8	5165.77
10	5021.28
10.2	5111.59
10.4	4660.03
10.6	4894.84
10.8	4894.84
11	5111.59
11.2	5797.95
11.4	5346.4
11.6	5725.7
11.8	5364.46
12	5400.58
12.2	5129.65
12.4	4985.15
12.6	5274.15
12.8	5816.01
13	5075.46
13.2	5075.46
13.4	5075.46
13.6	4949.03
13.8	5129.65
14	5093.53
14.2	4641.97
14.4	5039.34
14.6	4678.1
14.8	4660.03
15	4840.66
15.2	5003.21
15.4	4425.23
15.6	4533.6
15.8	4732.28
16	5039.34
16.2	4949.03
16.4	4678.1
16.6	4352.98
16.8	4858.72
17	4569.72
17.2	5075.46
17.4	4678.1
17.6	4551.66
17.8	4443.29
18	4876.78
18.2	5797.95
18.4	4750.34
18.6	4930.97
18.8	5454.77
19	6195.32
19.2	5563.14
19.4	4949.03
19.6	4660.03
19.8	4750.34
20	4949.03
20.2	4605.85
20.4	4208.48
20.6	4190.42
20.8	4515.54
21	4208.48
21.2	3973.67
21.4	3865.3
21.6	3901.42
21.8	3973.67
22	4208.48
22.2	3811.11
22.4	4280.73
22.6	3738.86
22.8	3467.93
23	4154.29
23.2	3160.88
23.4	3485.99
23.6	3738.86
23.8	3720.8
24	3811.11
24.2	4045.92
24.4	3756.93
24.6	3811.11
24.8	3269.25
25	3197
25.2	3251.19
25.4	2926.07
25.6	3106.69
25.8	3215.06
26	3865.3
26.2	3558.24
26.4	2889.94
26.6	3034.44
26.8	2564.82
27	2799.63
27.2	2366.14
27.4	2330.02
27.6	2203.58
27.8	2311.95
28	2384.2
28.2	2149.4
28.4	2528.7
28.6	2474.51
28.8	2311.95
29	2348.08
29.2	2330.02
29.4	2438.39
29.6	2095.21
29.8	1878.46
30	2113.27
30.2	1824.28
30.4	1986.84
30.6	1806.21
30.8	2167.46
31	2113.27
31.2	1697.84
31.4	1896.53
31.6	1788.15
31.8	1444.97
32	1535.28
32.2	1770.09
32.4	1589.47
32.6	1788.15
32.8	1571.41
33	1733.97
33.2	1697.84
33.4	1517.22
33.6	1589.47
33.8	1752.03
34	1228.23
34.2	1752.03
34.4	1336.6
34.6	1661.72
34.8	1679.78
35	1607.53
35.2	1571.41
35.4	1697.84
35.6	1372.72
35.8	1499.16
36	1318.54
36.2	1463.03
36.4	1408.85
36.6	1282.41
36.8	1408.85
37	1246.29
37.2	1336.6
37.4	1481.1
37.6	1354.66
37.8	1192.1
38	1408.85
38.2	1300.47
38.4	1318.54
38.6	1426.91
38.8	1137.92
39	1372.72
39.2	1354.66
39.4	1426.91
39.6	1119.85
39.8	1300.47
40	1336.6
40.2	1300.47
40.4	1264.35
40.6	1192.1
40.8	1228.23
41	1192.1
41.2	1174.04
41.4	921.169
41.6	1119.85
41.8	1372.72
42	1228.23
42.2	1155.98
42.4	1137.92
42.6	1083.73
42.8	1101.79
43	1137.92
43.2	1029.54
43.4	1282.41
43.6	1246.29
43.8	975.356
44	1174.04
44.2	975.356
44.4	1029.54
44.6	1336.6
44.8	1246.29
45	975.356
45.2	1083.73
45.4	1444.97
45.6	1083.73
45.8	993.418
46	1119.85
46.2	812.797
46.4	903.107
46.6	1065.67
46.8	1029.54
47	1029.54
47.2	1228.23
47.4	848.921
47.6	848.921
47.8	939.232
48	957.294
48.2	957.294
48.4	776.672
48.6	1137.92
48.8	812.797
49	1083.73
49.2	776.672
49.4	885.045
49.6	957.294
49.8	722.486
50	830.859
50.2	903.107
50.4	650.237
50.6	993.418
50.8	885.045
51	794.734
51.2	776.672
51.4	722.486
51.6	686.362
51.8	614.113
52	740.548
52.2	668.299
52.4	848.921
52.6	975.356
52.8	704.424
53	686.362
53.2	903.107
53.4	722.486
53.6	866.983
53.8	722.486
54	523.802
54.2	866.983
54.4	704.424
54.6	740.548
54.8	794.734
55	848.921
55.2	722.486
55.4	650.237
55.6	740.548
55.8	559.927
56	903.107
56.2	614.113
56.4	541.864
56.6	523.802
56.8	848.921
57	632.175
57.2	469.616
57.4	559.927
57.6	559.927
57.8	650.237
58	740.548
58.2	740.548
58.4	487.678
58.6	650.237
58.8	469.616
59	469.616
59.2	704.424
59.4	541.864
59.6	776.672
59.8	668.299
60	577.989

59.92	415.429
59.94	270.932
59.96	469.616
59.98	379.305
60	361.243

File: 80.TXT
Sample
Comments
Filename	C:\Data\西出研\梅木\20211102オペ\LiFTFSI20wt_03_0003_0079-1_C_2θ.raw
Goniometer	SmartLab(In-plane)
Attachment	標準Zステージ
Monochromater	None
X	0
Y	0
Z	0.01716
ScanningMode	2Theta
ScanningType	Continuos Scanning
X-Ray	40kV/30mA
入射スリット	0.300mm
受光スリット1	20.000mm
受光スリット2	20.000mm
None
Start	5
Stop	60
Step	0.02
Speed	21.6746
Theta	0
5	6285.63
5.2	6737.18
5.4	6141.13
5.6	7242.92
5.8	6123.07
6	6141.13
6.2	6339.81
6.4	5797.95
6.6	5707.64
6.8	6050.82
7	6267.56
7.2	5617.33
7.4	5527.02
7.6	5635.39
7.8	5635.39
8	6086.94
8.2	5508.95
8.4	5779.89
8.6	5906.32
8.8	5797.95
9	5707.64
9.2	5689.58
9.4	5996.63
9.6	4949.03
9.8	6159.19
10	5364.46
10.2	5527.02
10.4	5219.96
10.6	4930.97
10.8	5274.15
11	5581.2
11.2	4949.03
11.4	5165.77
11.6	5364.46
11.8	4750.34
12	5147.71
12.2	5454.77
12.4	5201.9
12.6	4912.9
12.8	5093.53
13	5545.08
13.2	5165.77
13.4	5761.82
13.6	4425.23
13.8	4930.97
14	5057.4
14.2	4226.54
14.4	4822.59
14.6	5075.46
14.8	5201.9
15	4912.9
15.2	4858.72
15.4	4714.22
15.6	5310.27
15.8	5057.4
16	4497.47
16.2	4714.22
16.4	4371.04
16.6	4425.23
16.8	4334.92
17	4804.53
17.2	5292.21
17.4	4732.28
17.6	4352.98
17.8	4641.97
18	4876.78
18.2	5527.02
18.4	5508.95
18.6	4840.66
18.8	5165.77
19	6050.82
19.2	5364.46
19.4	4822.59
19.6	4425.23
19.8	4316.85
20	4479.41
20.2	4009.8
20.4	3738.86
20.6	3793.05
20.8	3973.67
21	3901.42
21.2	4244.6
21.4	3829.18
21.6	4750.34
21.8	4100.11
22	3395.68
22.2	4298.79
22.4	3919.49
22.6	4045.92
22.8	4045.92
23	3811.11
23.2	3666.62
23.4	3612.43
23.6	3359.56
23.8	3702.74
24	3774.99
24.2	3756.93
24.4	3197
24.6	3576.31
24.8	3413.75
25	3305.37
25.2	3052.5
25.4	2889.94
25.6	3197
25.8	3215.06
26	3865.3
26.2	3612.43
26.4	3431.81
26.6	2727.38
26.8	2655.14
27	2655.14
27.2	2908.01
27.4	2619.01
27.6	2330.02
27.8	2384.2
28	2889.94
28.2	2311.95
28.4	1932.65
28.6	2528.7
28.8	2095.21
29	2492.58
29.2	2275.83
29.4	2221.64
29.6	1643.66
29.8	2185.52
30	1860.4
30.2	1896.53
30.4	1806.21
30.6	2167.46
30.8	1824.28
31	2113.27
31.2	2185.52
31.4	1806.21
31.6	1643.66
31.8	1752.03
32	1697.84
32.2	1499.16
32.4	1535.28
32.6	2113.27
32.8	1715.9
33	1806.21
33.2	2004.9
33.4	1860.4
33.6	1752.03
33.8	1788.15
34	1300.47
34.2	1968.77
34.4	1679.78
34.6	1733.97
34.8	1806.21
35	1463.03
35.2	1481.1
35.4	1318.54
35.6	1517.22
35.8	1517.22
36	1228.23
36.2	1264.35
36.4	1174.04
36.6	1210.16
36.8	1481.1
37	1481.1
37.2	1354.66
37.4	1192.1
37.6	1426.91
37.8	1336.6
38	1517.22
38.2	1426.91
38.4	1571.41
38.6	1101.79
38.8	1517.22
39	1228.23
39.2	1137.92
39.4	1300.47
39.6	1481.1
39.8	1155.98
40	1300.47
40.2	1228.23
40.4	1372.72
40.6	1174.04
40.8	1282.41
41	1463.03
41.2	1499.16
41.4	1372.72
41.6	1282.41
41.8	1119.85
42	1246.29
42.2	1318.54
42.4	939.232
42.6	1228.23
42.8	1047.6
43	1083.73
43.2	1228.23
43.4	1481.1
43.6	1354.66
43.8	1155.98
44	1246.29
44.2	1137.92
44.4	1047.6
44.6	939.232
44.8	1119.85
45	866.983
45.2	1029.54
45.4	1011.48
45.6	1228.23
45.8	848.921
46	957.294
46.2	1047.6
46.4	848.921
46.6	812.797
46.8	993.418
47	1011.48
47.2	957.294
47.4	975.356
47.6	993.418
47.8	885.045
48	740.548
48.2	866.983
48.4	957.294
48.6	957.294
48.8	758.61
49	957.294
49.2	993.418
49.4	848.921
49.6	812.797
49.8	794.734
50	975.356
50.2	722.486
50.4	686.362
50.6	740.548
50.8	650.237
51	848.921
51.2	758.61
51.4	668.299
51.6	776.672
51.8	957.294
52	722.486
52.2	776.672
52.4	993.418
52.6	704.424
52.8	903.107
53	776.672
53.2	541.864
53.4	668.299
53.6	505.74
53.8	632.175
54	668.299
54.2	523.802
54.4	921.169
54.6	632.175
54.8	614.113
55	505.74
55.2	668.299
55.4	758.61
55.6	776.672
55.8	505.74
56	650.237
56.2	541.864
56.4	740.548
56.6	704.424
56.8	415.429
57	758.61
57.2	812.797
57.4	776.672
57.6	632.175
57.8	668.299
58	650.237
58.2	758.61
58.4	614.113
58.6	704.424
58.8	451.554
59	704.424
59.2	577.989
59.4	704.424
59.6	650.237
59.8	523.802
60	668.299
60	505.74

File: 100.TXT
Sample
Comments
Filename	C:\Data\西出研\梅木\20211102オペ\LiFTFSI20wt_04_0004_0099-1_C_2θ.raw
Goniometer	SmartLab(In-plane)
Attachment	標準Zステージ
Monochromater	None
X	0
Y	0
Z	0.01716
ScanningMode	2Theta
ScanningType	Continuos Scanning
X-Ray	40kV/30mA
入射スリット	0.300mm
受光スリット1	20.000mm
受光スリット2	20.000mm
None
Start	5
Stop	60
Step	0.02
Speed	21.6746
Theta	0
5	6953.93
5.2	6809.43
5.4	6646.87
5.6	6791.37
5.8	6357.88
6	6773.31
6.2	6430.12
6.4	6231.44
6.6	5816.01
6.8	5527.02
7	5328.33
7.2	5635.39
7.4	5201.9
7.6	5436.71
7.8	5563.14
8	6014.69
8.2	5761.82
8.4	5617.33
8.6	5599.27
8.8	5183.84
9	5436.71
9.2	5653.45
9.4	5653.45
9.6	5256.08
9.8	6177.25
10	5201.9
10.2	4985.15
10.4	4696.16
10.6	5201.9
10.8	5527.02
11	5274.15
11.2	5400.58
11.4	5454.77
11.6	4912.9
11.8	4714.22
12	5219.96
12.2	5057.4
12.4	4876.78
12.6	5147.71
12.8	5111.59
13	5653.45
13.2	5328.33
13.4	4750.34
13.6	5201.9
13.8	5472.83
14	5364.46
14.2	4949.03
14.4	5490.89
14.6	5364.46
14.8	4967.09
15	5075.46
15.2	5274.15
15.4	4840.66
15.6	5400.58
15.8	5147.71
16	5075.46
16.2	4804.53
16.4	4804.53
16.6	4858.72
16.8	4714.22
17	5707.64
17.2	5527.02
17.4	4930.97
17.6	5292.21
17.8	4750.34
18	5111.59
18.2	5238.02
18.4	5111.59
18.6	4696.16
18.8	4949.03
19	4497.47
19.2	4840.66
19.4	4660.03
19.6	4515.54
19.8	4298.79
20	4714.22
20.2	4407.16
20.4	4154.29
20.6	4497.47
20.8	4407.16
21	4443.29
21.2	3883.36
21.4	4172.36
21.6	3991.73
21.8	4118.17
22	4172.36
22.2	3937.55
22.4	3648.55
22.6	3558.24
22.8	3720.8
23	3829.18
23.2	4063.98
23.4	3612.43
23.6	3937.55
23.8	3648.55
24	3720.8
24.2	3648.55
24.4	3540.18
24.6	3558.24
24.8	3431.81
25	3124.75
25.2	3485.99
25.4	3178.94
25.6	3305.37
25.8	2709.32
26	2962.19
26.2	2799.63
26.4	2709.32
26.6	3052.5
26.8	2311.95
27	2655.14
27.2	2763.51
27.4	2619.01
27.6	2474.51
27.8	2203.58
28	3016.38
28.2	2293.89
28.4	2311.95
28.6	2384.2
28.8	2384.2
29	2330.02
29.2	2022.96
29.4	1860.4
29.6	2059.08
29.8	1968.77
30	2311.95
30.2	2239.71
30.4	1860.4
30.6	2239.71
30.8	1950.71
31	1733.97
31.2	1788.15
31.4	1697.84
31.6	1824.28
31.8	1733.97
32	1752.03
32.2	1752.03
32.4	1806.21
32.6	1589.47
32.8	1607.53
33	2167.46
33.2	1824.28
33.4	1896.53
33.6	1950.71
33.8	1499.16
34	1914.59
34.2	1788.15
34.4	1679.78
34.6	1643.66
34.8	1535.28
35	1372.72
35.2	1625.59
35.4	1354.66
35.6	1589.47
35.8	1444.97
36	1318.54
36.2	1390.79
36.4	1553.34
36.6	1137.92
36.8	1408.85
37	1264.35
37.2	1318.54
37.4	1264.35
37.6	1390.79
37.8	1408.85
38	1390.79
38.2	1318.54
38.4	1282.41
38.6	1372.72
38.8	1137.92
39	1155.98
39.2	1011.48
39.4	1155.98
39.6	1174.04
39.8	1318.54
40	1174.04
40.2	1390.79
40.4	1029.54
40.6	758.61
40.8	1210.16
41	1336.6
41.2	1029.54
41.4	1174.04
41.6	866.983
41.8	1192.1
42	1264.35
42.2	1318.54
42.4	1101.79
42.6	1083.73
42.8	1300.47
43	1011.48
43.2	1011.48
43.4	1011.48
43.6	1174.04
43.8	1174.04
44	1336.6
44.2	1047.6
44.4	1155.98
44.6	921.169
44.8	1065.67
45	1155.98
45.2	848.921
45.4	1119.85
45.6	1137.92
45.8	1228.23
46	1083.73
46.2	1246.29
46.4	758.61
46.6	903.107
46.8	903.107
47	939.232
47.2	686.362
47.4	1192.1
47.6	758.61
47.8	758.61
48	1083.73
48.2	939.232
48.4	866.983
48.6	1011.48
48.8	794.734
49	848.921
49.2	830.859
49.4	848.921
49.6	921.169
49.8	794.734
50	758.61
50.2	812.797
50.4	704.424
50.6	830.859
50.8	885.045
51	704.424
51.2	650.237
51.4	903.107
51.6	650.237
51.8	632.175
52	686.362
52.2	794.734
52.4	812.797
52.6	866.983
52.8	758.61
53	740.548
53.2	903.107
53.4	794.734
53.6	650.237
53.8	523.802
54	812.797
54.2	740.548
54.4	758.61
54.6	722.486
54.8	758.61
55	650.237
55.2	577.989
55.4	614.113
55.6	577.989
55.8	487.678
56	686.362
56.2	848.921
56.4	686.362
56.6	541.864
56.8	541.864
57	686.362
57.2	523.802
57.4	632.175
57.6	740.548
57.8	632.175
58	505.74
58.2	505.74
58.4	596.051
58.6	541.864
58.8	523.802
59	469.616
59.2	379.305
59.4	686.362
59.6	776.672
59.8	614.113
60	469.616
60	234.808