Folder: GlassyIonicConductorDatabase/database/experiments/MU/normal/907_ppo_chloranil_litfsi/eis_data

Note: README.md
# GlassyIonicConductorDatabase

- Contains daily experimental data of polymeric ionic conductors
  
  - Process (as flowchart), structure, measurements, and properties

- Data are processed by machine learning tools

# Requirements

- Check for env. yml

- This database is processed by "FlowMater", which can treat graph data.
  
  - Visit the following URL for the latest version.
  
  - https://github.com/KanHatakeyama/FlowMater2

# Related paper

- TBD

# History

- version 2022.1.18: initial version

# Author

- Kan Hatakeyama-Sato
- Waseda University
- [Kan Hatakeyama](https://kanhatakeyama.github.io/)
- [satokan@toki.waseda](mailto:satokan@toki.waseda).(japan)

File: 2.txt
File.......:  cell2ppochloranillitfsi5wt - SEP,08.2021

System.....:
Potential..:  0.000V
Current....:  -20.361nA
Temperature:  -0.7 +-0.1 C
Time.......:  14:30:46 - 14:31:34
Comment....:

              Main
time.......:  9480.1 s
Impedance samples

Lines:   45
Columns: 5

Number   Frequency/Hz   impedance R/Ohm   impedance I/Ohm   Significance   Time/s
   1      1.0000e+06       3.5591e+02       -3.2800e+02        0.999           0.0
   2      7.5549e+05       4.4149e+02       -3.1072e+02        0.998           1.3
   3      5.7077e+05       5.1489e+02       -2.8005e+02        0.998           1.8
   4      4.3121e+05       5.6294e+02       -2.3296e+02        0.999           2.5
   5      3.2578e+05       6.0018e+02       -1.9249e+02        0.999           3.3
   6      2.4612e+05       6.2578e+02       -1.5788e+02        1.000           3.7
   7      1.8594e+05       6.4224e+02       -1.2785e+02        1.000           4.1
   8      1.4048e+05       6.5515e+02       -1.0430e+02        1.000           4.6
   9      1.0613e+05       6.6318e+02       -8.6629e+01        1.000           5.1
  10      8.0180e+04       6.7132e+02       -7.2767e+01        1.000           5.5
  11      6.0575e+04       6.7526e+02       -6.6258e+01        1.000           6.0
  12      4.5764e+04       6.8131e+02       -6.0743e+01        1.000           6.4
  13      3.4574e+04       6.8796e+02       -5.8803e+01        1.000           6.9
  14      2.6121e+04       6.8870e+02       -5.6226e+01        1.000           7.6
  15      1.9734e+04       6.9542e+02       -5.8153e+01        1.000           8.3
  16      1.4909e+04       7.0317e+02       -6.1691e+01        1.000           8.8
  17      1.1263e+04       7.1108e+02       -6.7375e+01        1.000           9.2
  18      8.5095e+03       7.2049e+02       -7.4762e+01        1.000           9.7
  19      6.4288e+03       7.3086e+02       -8.4270e+01        1.000          10.2
  20      4.8569e+03       7.4219e+02       -9.5382e+01        1.000          10.7
  21      3.6694e+03       7.5532e+02       -1.0774e+02        1.000          11.1
  22      2.7722e+03       7.7006e+02       -1.2404e+02        1.000          11.6
  23      2.0944e+03       7.8666e+02       -1.4325e+02        1.000          12.1
  24      1.5823e+03       8.0512e+02       -1.6610e+02        1.000          12.6
  25      1.1954e+03       8.2532e+02       -1.9432e+02        1.000          13.0
  26      9.0311e+02       8.4782e+02       -2.2839e+02        1.000          13.5
  27      6.8229e+02       8.7300e+02       -2.7078e+02        1.000          14.0
  28      5.1546e+02       9.0159e+02       -3.2372e+02        1.000          14.4
  29      3.8943e+02       9.3420e+02       -3.8917e+02        1.000          14.9
  30      2.9421e+02       9.7130e+02       -4.7294e+02        1.000          15.4
  31      2.2227e+02       1.0158e+03       -5.7816e+02        1.000          15.9
  32      1.6793e+02       1.0688e+03       -7.1203e+02        1.000          16.3
  33      1.2687e+02       1.1364e+03       -8.8231e+02        0.999          16.8
  34      9.5846e+01       1.2253e+03       -1.0956e+03        0.999          17.3
  35      7.2411e+01       1.3456e+03       -1.3593e+03        0.999          17.9
  36      5.4092e+01       1.5155e+03       -1.7053e+03        0.999          19.3
  37      3.9533e+01       1.7804e+03       -2.1613e+03        0.999          21.1
  38      2.8174e+01       2.2031e+03       -2.7491e+03        0.999          22.5
  39      1.9503e+01       2.8823e+03       -3.4882e+03        0.999          24.1
  40      1.3058e+01       3.9588e+03       -4.3362e+03        0.999          26.0
  41      8.4196e+00       5.5691e+03       -5.1274e+03        0.999          28.6
  42      5.2123e+00       7.7098e+03       -5.5277e+03        0.999          31.8
  43      3.0979e+00       1.0081e+04       -5.3311e+03        0.999          35.1
  44      1.7783e+00       1.2228e+04       -4.5767e+03        0.999          40.1
  45      1.0000e+00       1.3818e+04       -3.5839e+03        1.000          44.7

File: 3.txt
File.......:  cell3ppochloranillitfsi5wt - SEP,08.2021

System.....:
Potential..:  0.008V
Current....:  -7.8691nA
Temperature:  -0.7 +-0.1 C
Time.......:  14:33:11 - 14:33:59
Comment....:

              Main
time.......:  9480.1 s
Impedance samples

Lines:   45
Columns: 5

Number   Frequency/Hz   impedance R/Ohm   impedance I/Ohm   Significance   Time/s
   1      1.0000e+06       2.1230e+01       -7.5172e+02        0.998           0.0
   2      7.5549e+05       5.1738e+01       -9.9427e+02        0.996           1.5
   3      5.7077e+05       6.6540e+01       -1.2866e+03        0.991           2.1
   4      4.3121e+05       2.1055e+02       -1.6685e+03        0.998           3.0
   5      3.2578e+05       3.3164e+02       -2.1480e+03        0.999           4.0
   6      2.4612e+05       5.0960e+02       -2.7645e+03        0.996           4.4
   7      1.8594e+05       7.6000e+02       -3.5352e+03        0.997           4.9
   8      1.4048e+05       1.1934e+03       -4.5399e+03        0.997           5.4
   9      1.0613e+05       1.7368e+03       -5.7298e+03        0.997           5.8
  10      8.0180e+04       2.5810e+03       -7.1484e+03        0.999           6.3
  11      6.0575e+04       4.0070e+03       -8.7612e+03        0.999           7.0
  12      4.5764e+04       5.7995e+03       -1.0482e+04        0.998           7.6
  13      3.4574e+04       8.1972e+03       -1.2113e+04        0.999           8.1
  14      2.6121e+04       1.1210e+04       -1.3386e+04        0.998           8.6
  15      1.9734e+04       1.4588e+04       -1.4073e+04        0.998           9.1
  16      1.4909e+04       1.8050e+04       -1.4048e+04        0.999           9.5
  17      1.1263e+04       2.1315e+04       -1.3408e+04        0.998          10.0
  18      8.5095e+03       2.4098e+04       -1.2366e+04        1.000          10.5
  19      6.4288e+03       2.6353e+04       -1.1211e+04        0.999          10.9
  20      4.8569e+03       2.8054e+04       -1.0139e+04        0.999          11.4
  21      3.6694e+03       2.9641e+04       -9.0633e+03        0.999          11.9
  22      2.7722e+03       3.0878e+04       -8.3209e+03        1.000          12.3
  23      2.0944e+03       3.1978e+04       -7.7831e+03        1.000          12.8
  24      1.5823e+03       3.3004e+04       -7.4518e+03        1.000          13.3
  25      1.1954e+03       3.4001e+04       -7.3281e+03        1.000          13.8
  26      9.0311e+02       3.5011e+04       -7.3573e+03        1.000          14.2
  27      6.8229e+02       3.6059e+04       -7.5520e+03        1.000          14.7
  28      5.1546e+02       3.7155e+04       -7.8928e+03        1.000          15.2
  29      3.8943e+02       3.8346e+04       -8.3464e+03        1.000          15.7
  30      2.9421e+02       3.9614e+04       -8.9800e+03        1.000          16.1
  31      2.2227e+02       4.0990e+04       -9.7103e+03        1.000          16.6
  32      1.6793e+02       4.2466e+04       -1.0639e+04        1.000          17.0
  33      1.2687e+02       4.4086e+04       -1.1741e+04        1.000          17.5
  34      9.5846e+01       4.5846e+04       -1.3020e+04        1.000          18.1
  35      7.2411e+01       4.7863e+04       -1.4540e+04        1.000          18.7
  36      5.4092e+01       5.0234e+04       -1.6672e+04        1.000          20.1
  37      3.9533e+01       5.2764e+04       -1.8978e+04        1.000          21.9
  38      2.8174e+01       5.6024e+04       -2.2212e+04        0.999          23.3
  39      1.9503e+01       6.0221e+04       -2.6493e+04        1.000          24.9
  40      1.3058e+01       6.5551e+04       -3.2471e+04        1.000          27.2
  41      8.4196e+00       7.2620e+04       -4.0993e+04        0.999          29.8
  42      5.2123e+00       8.2267e+04       -5.3498e+04        0.999          32.4
  43      3.0979e+00       9.5742e+04       -7.2440e+04        0.999          35.8
  44      1.7783e+00       1.1496e+05       -1.0143e+05        0.999          40.7
  45      1.0000e+00       1.4217e+05       -1.4567e+05        0.999          45.3

File: 4.txt
File.......:  cell4ppochloranillitfsi5wt - SEP,08.2021

System.....:
Potential..:  -0.008V
Current....:  -601.03pA
Temperature:  -0.7 +-0.2 C
Time.......:  14:28:02 - 14:28:49
Comment....:

              Main
time.......:  9480.1 s
Impedance samples

Lines:   45
Columns: 5

Number   Frequency/Hz   impedance R/Ohm   impedance I/Ohm   Significance   Time/s
   1      1.0000e+06       2.6936e+02       -6.8945e+02        0.999           0.0
   2      7.5549e+05       4.1709e+02       -8.3033e+02        0.996           1.3
   3      5.7077e+05       5.9488e+02       -9.6157e+02        0.993           1.8
   4      4.3121e+05       8.8562e+02       -9.9616e+02        0.999           2.8
   5      3.2578e+05       1.1497e+03       -1.0080e+03        0.999           3.7
   6      2.4612e+05       1.4063e+03       -9.6021e+02        0.998           4.2
   7      1.8594e+05       1.6272e+03       -8.5812e+02        0.998           4.6
   8      1.4048e+05       1.7878e+03       -7.3275e+02        0.998           5.1
   9      1.0613e+05       1.9213e+03       -6.0536e+02        0.999           5.6
  10      8.0180e+04       2.0032e+03       -4.9203e+02        1.000           6.0
  11      6.0575e+04       2.0581e+03       -3.9555e+02        1.000           6.5
  12      4.5764e+04       2.0923e+03       -3.1720e+02        1.000           6.9
  13      3.4574e+04       2.1183e+03       -2.5866e+02        1.000           7.4
  14      2.6121e+04       2.1353e+03       -2.1304e+02        1.000           7.9
  15      1.9734e+04       2.1493e+03       -1.8089e+02        1.000           8.3
  16      1.4909e+04       2.1608e+03       -1.5976e+02        1.000           8.8
  17      1.1263e+04       2.1724e+03       -1.4725e+02        1.000           9.2
  18      8.5095e+03       2.1832e+03       -1.4295e+02        1.000           9.7
  19      6.4288e+03       2.1956e+03       -1.4629e+02        1.000          10.2
  20      4.8569e+03       2.2092e+03       -1.5539e+02        1.000          10.7
  21      3.6694e+03       2.2261e+03       -1.6579e+02        1.000          11.1
  22      2.7722e+03       2.2443e+03       -1.8700e+02        1.000          11.6
  23      2.0944e+03       2.2654e+03       -2.1441e+02        1.000          12.1
  24      1.5823e+03       2.2897e+03       -2.4874e+02        1.000          12.6
  25      1.1954e+03       2.3176e+03       -2.9341e+02        1.000          13.0
  26      9.0311e+02       2.3498e+03       -3.4763e+02        1.000          13.5
  27      6.8229e+02       2.3867e+03       -4.1594e+02        1.000          14.0
  28      5.1546e+02       2.4292e+03       -5.0080e+02        1.000          14.4
  29      3.8943e+02       2.4800e+03       -6.0443e+02        1.000          14.9
  30      2.9421e+02       2.5377e+03       -7.3577e+02        1.000          15.4
  31      2.2227e+02       2.6069e+03       -8.9764e+02        1.000          15.9
  32      1.6793e+02       2.6870e+03       -1.1035e+03        1.000          16.3
  33      1.2687e+02       2.7838e+03       -1.3622e+03        1.000          16.8
  34      9.5846e+01       2.9022e+03       -1.6876e+03        1.000          17.3
  35      7.2411e+01       3.0495e+03       -2.0960e+03        1.000          17.9
  36      5.4092e+01       3.2327e+03       -2.6352e+03        0.999          19.3
  37      3.9533e+01       3.4950e+03       -3.3733e+03        0.999          21.1
  38      2.8174e+01       3.8727e+03       -4.4050e+03        0.999          22.5
  39      1.9503e+01       4.4350e+03       -5.8759e+03        0.999          24.6
  40      1.3058e+01       5.3165e+03       -8.0332e+03        0.999          26.8
  41      8.4196e+00       6.7546e+03       -1.1246e+04        0.999          29.0
  42      5.2123e+00       9.1910e+03       -1.6087e+04        0.999          31.6
  43      3.0979e+00       1.3414e+04       -2.3333e+04        0.999          35.0
  44      1.7783e+00       2.0759e+04       -3.3819e+04        0.999          40.1
  45      1.0000e+00       3.2650e+04       -4.7867e+04        1.000          44.7