Folder: GlassyIonicConductorDatabase/database/experiments/MU/xrd/1102/parallel/1029/xrd

Note: README.md
# GlassyIonicConductorDatabase

- Contains daily experimental data of polymeric ionic conductors
  
  - Process (as flowchart), structure, measurements, and properties

- Data are processed by machine learning tools

# Requirements

- Check for env. yml

- This database is processed by "FlowMater", which can treat graph data.
  
  - Visit the following URL for the latest version.
  
  - https://github.com/KanHatakeyama/FlowMater2

# Related paper

- TBD

# History

- version 2022.1.18: initial version

# Author

- Kan Hatakeyama-Sato
- Waseda University
- [Kan Hatakeyama](https://kanhatakeyama.github.io/)
- [satokan@toki.waseda](mailto:satokan@toki.waseda).(japan)

File: 25.TXT
Sample
Comments
Filename	C:\Data\西出研\梅木\20211102オペ\LiFTFSI20wt_01_0001_0029-1_C_2θ.raw
Goniometer	SmartLab(In-plane)
Attachment	標準Zステージ
Monochromater	None
X	0
Y	0
Z	0.01716
ScanningMode	2Theta
ScanningType	Continuos Scanning
X-Ray	40kV/30mA
入射スリット	0.300mm
受光スリット1	20.000mm
受光スリット2	20.000mm
None
Start	5
Stop	60
Step	0.02
Speed	21.6746
Theta	0
5	6917.8
5.2	5906.32
5.4	7008.11
5.6	6755.24
5.8	6014.69
6	6484.31
6.2	6646.87
6.4	6574.62
6.6	5779.89
6.8	5653.45
7	5816.01
7.2	5816.01
7.4	6249.5
7.6	5852.14
7.8	5310.27
8	5852.14
8.2	6105.01
8.4	5472.83
8.6	5942.45
8.8	5689.58
9	5382.52
9.2	5418.64
9.4	5039.34
9.6	4858.72
9.8	5165.77
10	5454.77
10.2	5382.52
10.4	5635.39
10.6	5075.46
10.8	5400.58
11	5039.34
11.2	4930.97
11.4	5761.82
11.6	5382.52
11.8	5256.08
12	4623.91
12.2	5129.65
12.4	4569.72
12.6	5147.71
12.8	5328.33
13	5400.58
13.2	4714.22
13.4	4912.9
13.6	4551.66
13.8	5238.02
14	5219.96
14.2	5400.58
14.4	5075.46
14.6	4804.53
14.8	5274.15
15	4750.34
15.2	4605.85
15.4	4967.09
15.6	4479.41
15.8	4678.1
16	4894.84
16.2	4641.97
16.4	4660.03
16.6	4623.91
16.8	4154.29
17	4876.78
17.2	5219.96
17.4	5093.53
17.6	4732.28
17.8	4822.59
18	4172.36
18.2	5075.46
18.4	5129.65
18.6	5003.21
18.8	5219.96
19	5418.64
19.2	5761.82
19.4	5346.4
19.6	4551.66
19.8	4371.04
20	4551.66
20.2	4009.8
20.4	3774.99
20.6	4389.1
20.8	4280.73
21	4063.98
21.2	4100.11
21.4	4190.42
21.6	4623.91
21.8	4280.73
22	4407.16
22.2	3919.49
22.4	3883.36
22.6	3720.8
22.8	3485.99
23	3973.67
23.2	4190.42
23.4	3684.68
23.6	3973.67
23.8	3738.86
24	3774.99
24.2	3955.61
24.4	3756.93
24.6	3016.38
24.8	3630.49
25	2817.69
25.2	2980.25
25.4	3359.56
25.6	3233.12
25.8	3160.88
26	3522.12
26.2	4045.92
26.4	2944.13
26.6	2962.19
26.8	2582.89
27	2853.82
27.2	2582.89
27.4	2420.33
27.6	2348.08
27.8	2438.39
28	2185.52
28.2	2330.02
28.4	2637.07
28.6	2655.14
28.8	2095.21
29	2203.58
29.2	2492.58
29.4	2131.33
29.6	2293.89
29.8	1806.21
30	2348.08
30.2	2257.77
30.4	1932.65
30.6	1986.84
30.8	2257.77
31	2239.71
31.2	1806.21
31.4	2022.96
31.6	2167.46
31.8	1842.34
32	1896.53
32.2	1770.09
32.4	1733.97
32.6	1679.78
32.8	1444.97
33	1661.72
33.2	1408.85
33.4	1770.09
33.6	1806.21
33.8	1625.59
34	1535.28
34.2	1643.66
34.4	1968.77
34.6	1589.47
34.8	1571.41
35	1426.91
35.2	1517.22
35.4	1282.41
35.6	1444.97
35.8	1661.72
36	1499.16
36.2	1661.72
36.4	1228.23
36.6	1246.29
36.8	1408.85
37	1625.59
37.2	1372.72
37.4	1246.29
37.6	1137.92
37.8	1444.97
38	1246.29
38.2	1210.16
38.4	1571.41
38.6	1264.35
38.8	1155.98
39	1192.1
39.2	1282.41
39.4	1318.54
39.6	1318.54
39.8	1390.79
40	1589.47
40.2	1571.41
40.4	1300.47
40.6	1192.1
40.8	1264.35
41	1029.54
41.2	1246.29
41.4	1083.73
41.6	1300.47
41.8	1174.04
42	1390.79
42.2	1210.16
42.4	1065.67
42.6	1210.16
42.8	1101.79
43	1192.1
43.2	1137.92
43.4	1029.54
43.6	1174.04
43.8	1101.79
44	1174.04
44.2	1535.28
44.4	1029.54
44.6	993.418
44.8	1155.98
45	1047.6
45.2	1282.41
45.4	1101.79
45.6	1083.73
45.8	1174.04
46	1119.85
46.2	1246.29
46.4	1083.73
46.6	740.548
46.8	939.232
47	1029.54
47.2	903.107
47.4	794.734
47.6	975.356
47.8	975.356
48	776.672
48.2	957.294
48.4	1137.92
48.6	740.548
48.8	939.232
49	740.548
49.2	794.734
49.4	848.921
49.6	758.61
49.8	794.734
50	1029.54
50.2	704.424
50.4	650.237
50.6	740.548
50.8	830.859
51	830.859
51.2	650.237
51.4	632.175
51.6	812.797
51.8	830.859
52	704.424
52.2	632.175
52.4	740.548
52.6	794.734
52.8	866.983
53	722.486
53.2	505.74
53.4	812.797
53.6	614.113
53.8	830.859
54	740.548
54.2	830.859
54.4	812.797
54.6	650.237
54.8	596.051
55	794.734
55.2	614.113
55.4	614.113
55.6	794.734
55.8	614.113
56	758.61
56.2	577.989
56.4	577.989
56.6	650.237
56.8	668.299
57	614.113
57.2	523.802
57.4	505.74
57.6	559.927
57.8	505.74
58	487.678
58.2	559.927
58.4	848.921
58.6	577.989
58.8	740.548
59	794.734
59.2	451.554
59.4	596.051
59.6	379.305
59.8	704.424
60	812.797
60	270.932