Folder: GlassyIonicConductorDatabase/database/experiments/MU/xrd/1102/intensive/1029

Note: README.md
# GlassyIonicConductorDatabase

- Contains daily experimental data of polymeric ionic conductors
  
  - Process (as flowchart), structure, measurements, and properties

- Data are processed by machine learning tools

# Requirements

- Check for env. yml

- This database is processed by "FlowMater", which can treat graph data.
  
  - Visit the following URL for the latest version.
  
  - https://github.com/KanHatakeyama/FlowMater2

# Related paper

- TBD

# History

- version 2022.1.18: initial version

# Author

- Kan Hatakeyama-Sato
- Waseda University
- [Kan Hatakeyama](https://kanhatakeyama.github.io/)
- [satokan@toki.waseda](mailto:satokan@toki.waseda).(japan)

File: xrd.TXT
Sample
Comments
Filename	C:\Data\西出研\梅木\20211102オペ\ベッセル\LiFTFSI20wt_2θ_θ.raw
Goniometer	SmartLab(In-plane)
Attachment	Zステージ単独
Monochromater	None
X	0
Y	0
Z	0.03946
ScanningMode	2Theta/Theta
ScanningType	Continuos Scanning
X-Ray	40kV/30mA
入射スリット	2/3deg
受光スリット1	20.000mm
受光スリット2	20.000mm
Cu_K-beta
Start	5
Stop	60
Step	0.02
Speed	21.6746
Offset	0
5	52398.3
5.2	40603.7
5.4	33631.7
5.6	29603.9
5.8	28827.2
6	26876.5
6.2	27833.8
6.4	27906
6.6	28411.8
6.8	26497.2
7	27255.8
7.2	27183.5
7.4	27075.2
7.6	26117.9
7.8	26045.6
8	26479.1
8.2	25865
8.4	25449.6
8.6	27111.3
8.8	27978.3
9	24691
9.2	26515.2
9.4	26551.4
9.6	24763.2
9.8	25792.7
10	26226.2
10.2	25196.7
10.4	25106.4
10.6	24329.7
10.8	25323.1
11	25594.1
11.2	25828.9
11.4	24943.8
11.6	25991.4
11.8	26208.2
12	25377.3
12.2	25250.9
12.4	25901.1
12.6	24691
12.8	25648.2
13	25846.9
13.2	23986.5
13.4	25865
13.6	26244.3
13.8	26244.3
14	25937.2
14.2	25630.2
14.4	26370.7
14.6	25341.2
14.8	25160.6
15	26063.7
15.2	25395.4
15.4	24998
15.6	25323.1
15.8	24311.7
16	25449.6
16.2	24094.9
16.4	24058.8
16.6	24058.8
16.8	25196.7
17	24672.9
17.2	25431.5
17.4	24961.9
17.6	25810.8
17.8	23896.2
18	24040.7
18.2	26280.4
18.4	25883.1
18.6	26822.3
18.8	28086.6
19	24076.8
19.2	25467.6
19.4	26786.2
19.6	23787.8
19.8	23083.4
20	22649.9
20.2	21945.5
20.4	21999.7
20.6	21530.1
20.8	20681.2
21	20897.9
21.2	20067
21.4	20843.7
21.6	21620.4
21.8	19958.7
22	21114.7
22.2	20663.1
22.4	20825.7
22.6	20482.5
22.8	21530.1
23	19561.3
23.2	19904.5
23.4	19958.7
23.6	19380.7
23.8	19037.5
24	19651.6
24.2	18730.4
24.4	19326.5
24.6	17953.8
24.8	17321.6
25	17646.7
25.2	17285.5
25.4	18766.6
25.6	18459.5
25.8	19308.4
26	20247.7
26.2	19416.8
26.4	16544.9
26.6	17664.8
26.8	16906.2
27	16833.9
27.2	16237.9
27.4	14522
27.6	15533.4
27.8	14467.8
28	14287.2
28.2	14124.6
28.4	15515.4
28.6	15768.3
28.8	16942.3
29	16653.3
29.2	14540
29.4	14413.6
29.6	13275.7
29.8	14052.4
30	13745.3
30.2	13835.6
30.4	12607.4
30.6	12715.8
30.8	11921
31	12101.6
31.2	12246.1
31.4	12426.8
31.6	12210
31.8	12011.3
32	12119.7
32.2	11144.3
32.4	12011.3
32.6	11632
32.8	12210
33	11577.8
33.2	11054
33.4	11957.1
33.6	12065.5
33.8	11198.5
34	11776.5
34.2	10855.4
34.4	11090.2
34.6	11198.5
34.8	10891.5
35	11072.1
35.2	10710.9
35.4	10295.4
35.6	10909.5
35.8	10963.7
36	11252.7
36.2	10945.7
36.4	10945.7
36.6	10945.7
36.8	11054
37	10494.1
37.2	9428.44
37.4	10169
37.6	10385.7
37.8	9265.88
38	9789.68
38.2	9717.43
38.4	9789.68
38.6	9789.68
38.8	9627.12
39	10277.4
39.2	9338.13
39.4	9283.94
39.6	9157.51
39.8	9157.51
40	8543.4
40.2	8290.53
40.4	9518.75
40.6	8994.95
40.8	9049.14
41	9175.57
41.2	9518.75
41.4	8687.89
41.6	8868.51
41.8	8904.64
42	9121.38
42.2	8994.95
42.4	8416.96
42.6	9085.26
42.8	8471.15
43	7929.28
43.2	8398.9
43.4	8633.71
43.6	8687.89
43.8	8435.02
44	8164.09
44.2	8778.2
44.4	8073.78
44.6	8832.39
44.8	7857.03
45	7983.47
45.2	8001.53
45.4	8037.66
45.6	8164.09
45.8	7875.1
46	8435.02
46.2	7387.42
46.4	7857.03
46.6	7188.73
46.8	8146.03
47	7459.67
47.2	7297.11
47.4	7929.28
47.6	8705.96
47.8	8344.71
48	7622.23
48.2	7351.29
48.4	7152.61
48.6	7098.42
48.8	6845.55
49	7080.36
49.2	8416.96
49.4	9392.32
49.6	8507.27
49.8	7604.16
50	7369.36
50.2	7026.18
50.4	6592.68
50.6	6646.87
50.8	5960.51
51	6484.31
51.2	6412.06
51.4	6249.5
51.6	6755.24
51.8	6177.25
52	6032.76
52.2	6285.63
52.4	5779.89
52.6	6123.07
52.8	6303.69
53	5870.2
53.2	6032.76
53.4	5563.14
53.6	5508.95
53.8	5292.21
54	5472.83
54.2	5671.51
54.4	4804.53
54.6	5454.77
54.8	5075.46
55	4804.53
55.2	5725.7
55.4	4605.85
55.6	5147.71
55.8	4678.1
56	5039.34
56.2	5364.46
56.4	5147.71
56.6	5743.76
56.8	4750.34
57	4587.79
57.2	4696.16
57.4	4551.66
57.6	4190.42
57.8	4623.91
58	4352.98
58.2	4497.47
58.4	4298.79
58.6	4063.98
58.8	4389.1
59	4551.66
59.2	3323.44
59.4	3576.31
59.6	4316.85
59.8	3991.73
60	4298.79