Folder: GlassyIonicConductorDatabase/database/experiments/MU/xrd/1102/intensive/1101

Note: README.md
# GlassyIonicConductorDatabase

- Contains daily experimental data of polymeric ionic conductors
  
  - Process (as flowchart), structure, measurements, and properties

- Data are processed by machine learning tools

# Requirements

- Check for env. yml

- This database is processed by "FlowMater", which can treat graph data.
  
  - Visit the following URL for the latest version.
  
  - https://github.com/KanHatakeyama/FlowMater2

# Related paper

- TBD

# History

- version 2022.1.18: initial version

# Author

- Kan Hatakeyama-Sato
- Waseda University
- [Kan Hatakeyama](https://kanhatakeyama.github.io/)
- [satokan@toki.waseda](mailto:satokan@toki.waseda).(japan)

File: xrd.TXT
Sample
Comments
Filename	C:\Data\西出研\梅木\20211102オペ\ベッセル\LiTFSI24_2θ_θ.raw
Goniometer	SmartLab(In-plane)
Attachment	Zステージ単独
Monochromater	None
X	0
Y	0
Z	0.07744
ScanningMode	2Theta/Theta
ScanningType	Continuos Scanning
X-Ray	40kV/30mA
入射スリット	2/3deg
受光スリット1	20.000mm
受光スリット2	20.000mm
Cu_K-beta
Start	5
Stop	60
Step	0.02
Speed	21.6746
Offset	0
5	47340.9
5.2	38815.6
5.4	30543.1
5.6	27562.8
5.8	25648.2
6	25594.1
6.2	25594.1
6.4	24510.3
6.6	24961.9
6.8	24998
7	25088.3
7.2	24871.6
7.4	25521.8
7.6	24817.4
7.8	24618.7
8	25865
8.2	24492.3
8.4	24564.5
8.6	24456.1
8.8	23950.4
9	22613.8
9.2	23769.8
9.4	23462.7
9.6	24311.7
9.8	23824
10	24871.6
10.2	23751.7
10.4	25305.1
10.6	25052.2
10.8	26750
11	25016.1
11.2	25088.3
11.4	25052.2
11.6	24943.8
11.8	23733.7
12	24022.7
12.2	24672.9
12.4	24709
12.6	24492.3
12.8	25503.8
13	25016.1
13.2	25901.1
13.4	26280.4
13.6	25052.2
13.8	26533.3
14	25214.8
14.2	26027.6
14.4	25395.4
14.6	25088.3
14.8	26388.8
15	26117.9
15.2	24546.5
15.4	24889.6
15.6	25341.2
15.8	25539.9
16	24799.3
16.2	25250.9
16.4	24618.7
16.6	25449.6
16.8	25034.1
17	26677.8
17.2	31428.1
17.4	23318.2
17.6	23480.8
17.8	23209.9
18	23715.6
18.2	24853.5
18.4	25648.2
18.6	22433.2
18.8	23571.1
19	34137.5
19.2	32782.8
19.4	24474.2
19.6	21927.4
19.8	21439.8
20	19976.7
20.2	21512
20.4	21078.5
20.6	19326.5
20.8	20861.8
21	21530.1
21.2	20554.7
21.4	20735.3
21.6	20934
21.8	20301.9
22	20265.7
22.2	20536.7
22.4	20356
22.6	19236.2
22.8	20283.8
23	23968.5
23.2	21909.4
23.4	19452.9
23.6	18929.1
23.8	18874.9
24	18712.4
24.2	18802.7
24.4	20247.7
24.6	27255.8
24.8	24925.8
25	21674.6
25.2	19019.4
25.4	18278.9
25.6	17411.9
25.8	16526.9
26	16563
26.2	15244.5
26.4	16274
26.6	15479.3
26.8	15262.5
27	16274
27.2	15443.1
27.4	14431.7
27.6	14413.6
27.8	15334.8
28	13781.4
28.2	13275.7
28.4	14214.9
28.6	14269.1
28.8	16183.7
29	15280.6
29.2	14016.2
29.4	13907.9
29.6	12625.4
29.8	13582.7
30	13239.6
30.2	13438.2
30.4	13257.6
30.6	12968.6
30.8	12607.4
31	12210
31.2	12480.9
31.4	12788
31.6	13149.2
31.8	13293.7
32	14395.5
32.2	12589.3
32.4	11921
32.6	12282.3
32.8	12480.9
33	13329.9
33.2	16382.4
33.4	16219.8
33.6	12806.1
33.8	11830.7
34	12697.7
34.2	12426.8
34.4	10602.5
34.6	11614
34.8	13329.9
35	11198.5
35.2	10909.5
35.4	10295.4
35.6	10765
35.8	10367.7
36	10331.5
36.2	10819.2
36.4	11216.6
36.6	10458
36.8	10421.9
37	10638.6
37.2	10692.8
37.4	10042.6
37.6	9735.5
37.8	11451.4
38	13384.1
38.2	13618.9
38.4	12517.1
38.6	9988.37
38.8	10638.6
39	9735.5
39.2	9464.57
39.4	8958.83
39.6	9265.88
39.8	9085.26
40	9879.99
40.2	8958.83
40.4	9771.62
40.6	9554.88
40.8	10006.4
41	9753.56
41.2	9247.82
41.4	8669.83
41.6	8633.71
41.8	9121.38
42	9139.45
42.2	9464.57
42.4	8290.53
42.6	8994.95
42.8	8705.96
43	9211.7
43.2	8543.4
43.4	8543.4
43.6	8416.96
43.8	8326.65
44	9103.32
44.2	8922.7
44.4	8958.83
44.6	9103.32
44.8	7857.03
45	8724.02
45.2	8705.96
45.4	7622.23
45.6	8579.52
45.8	7676.41
46	7405.48
46.2	7838.97
46.4	7911.22
46.6	7929.28
46.8	8362.77
47	8272.46
47.2	7820.91
47.4	7838.97
47.6	8182.15
47.8	7495.79
48	7260.98
48.2	6737.18
48.4	7459.67
48.6	7568.04
48.8	7640.29
49	7098.42
49.2	7947.34
49.4	8615.64
49.6	9464.57
49.8	7875.1
50	7730.6
50.2	7820.91
50.4	7333.23
50.6	6448.19
50.8	6610.75
51	7279.05
51.2	7477.73
51.4	6791.37
51.6	6574.62
51.8	7152.61
52	6339.81
52.2	7134.55
52.4	6827.49
52.6	6394
52.8	5978.57
53	5545.08
53.2	6267.56
53.4	5960.51
53.6	5328.33
53.8	6032.76
54	5888.26
54.2	5942.45
54.4	5689.58
54.6	5382.52
54.8	5346.4
55	5436.71
55.2	6177.25
55.4	5021.28
55.6	5599.27
55.8	4912.9
56	4822.59
56.2	5364.46
56.4	5310.27
56.6	4461.35
56.8	4858.72
57	4714.22
57.2	5039.34
57.4	4569.72
57.6	4840.66
57.8	4768.41
58	4605.85
58.2	4479.41
58.4	4641.97
58.6	4407.16
58.8	4190.42
59	3883.36
59.2	4244.6
59.4	4082.05
59.6	4768.41
59.8	4641.97
60	4280.73