Folder: GlassyIonicConductorDatabase/database/experiments/MU/xrd/1102/intensive/liftfsi

Note: README.md
# GlassyIonicConductorDatabase

- Contains daily experimental data of polymeric ionic conductors
  
  - Process (as flowchart), structure, measurements, and properties

- Data are processed by machine learning tools

# Requirements

- Check for env. yml

- This database is processed by "FlowMater", which can treat graph data.
  
  - Visit the following URL for the latest version.
  
  - https://github.com/KanHatakeyama/FlowMater2

# Related paper

- TBD

# History

- version 2022.1.18: initial version

# Author

- Kan Hatakeyama-Sato
- Waseda University
- [Kan Hatakeyama](https://kanhatakeyama.github.io/)
- [satokan@toki.waseda](mailto:satokan@toki.waseda).(japan)

File: xrd.TXT
Sample
Comments
Filename	C:\Data\西出研\梅木\20211102オペ\ベッセル\LiFTFSI_2θ_θ.raw
Goniometer	SmartLab(In-plane)
Attachment	Zステージ単独
Monochromater	None
X	0
Y	0
Z	0.02762
ScanningMode	2Theta/Theta
ScanningType	Continuos Scanning
X-Ray	40kV/30mA
入射スリット	2/3deg
受光スリット1	20.000mm
受光スリット2	20.000mm
Cu_K-beta
Start	5
Stop	60
Step	0.02
Speed	21.6746
Offset	0
5	47539.6
5.2	39700.6
5.4	31735.2
5.6	28700.8
5.8	27400.3
6	27382.2
6.2	25955.3
6.4	25413.4
6.6	27183.5
6.8	25774.7
7	26388.8
7.2	26045.6
7.4	25106.4
7.6	24582.6
7.8	24618.7
8	24347.8
8.2	24907.7
8.4	25142.5
8.6	24871.6
8.8	23878.2
9	23950.4
9.2	27057.1
9.4	23787.8
9.6	23336.3
9.8	23047.3
10	22668
10.2	22252.6
10.4	22631.9
10.6	21602.3
10.8	21512
11	21403.6
11.2	21620.4
11.4	20879.8
11.6	20229.6
11.8	20735.3
12	20410.2
12.2	18838.8
12.4	20410.2
12.6	21530.1
12.8	19832.2
13	19362.6
13.2	18098.3
13.4	19452.9
13.6	19290.4
13.8	18441.5
14	18658.2
14.2	18622.1
14.4	18622.1
14.6	18152.5
14.8	18640.1
15	19218.1
15.2	19145.9
15.4	18477.6
15.6	18369.2
15.8	18297
16	24528.4
16.2	23697.5
16.4	17159
16.6	17050.7
16.8	18116.3
17	16075.3
17.2	16508.8
17.4	17538.3
17.6	16599.1
17.8	18856.9
18	36214.6
18.2	17700.9
18.4	28213.1
18.6	121558
18.8	21746.8
19	16870
19.2	26750
19.4	21963.6
19.6	14449.7
19.8	15100
20	16093.4
20.2	16508.8
20.4	13944
20.6	13366
20.8	13889.8
21	28863.3
21.2	20211.5
21.4	12733.8
21.6	13618.9
21.8	18531.8
22	12607.4
22.2	12751.9
22.4	12517.1
22.6	12336.4
22.8	13239.6
23	13799.5
23.2	18170.5
23.4	16346.2
23.6	12517.1
23.8	11451.4
24	11668.1
24.2	11614
24.4	11252.7
24.6	11090.2
24.8	11288.8
25	12228.1
25.2	15370.9
25.4	17430
25.6	32692.5
25.8	67046.7
26	12643.5
26.2	13528.5
26.4	20879.8
26.6	12751.9
26.8	11686.2
27	10566.4
27.2	11469.5
27.4	17592.5
27.6	39285.2
27.8	12950.6
28	14973.5
28.2	19705.8
28.4	9356.19
28.6	9536.81
28.8	9771.62
29	9500.69
29.2	9518.75
29.4	9518.75
29.6	9988.37
29.8	9482.63
30	13167.3
30.2	13727.2
30.4	9735.5
30.6	10999.8
30.8	9175.57
31	10584.4
31.2	8940.76
31.4	8814.33
31.6	9518.75
31.8	9536.81
32	8796.27
32.2	8200.21
32.4	10981.8
32.6	12282.3
32.8	11541.7
33	35167
33.2	14503.9
33.4	10728.9
33.6	8146.03
33.8	8326.65
34	12896.4
34.2	9500.69
34.4	8308.59
34.6	8290.53
34.8	9229.76
35	9139.45
35.2	9157.51
35.4	7224.86
35.6	7423.54
35.8	7315.17
36	9283.94
36.2	10548.3
36.4	7513.85
36.6	9356.19
36.8	11451.4
37	9699.37
37.2	13384.1
37.4	14756.8
37.6	8398.9
37.8	12553.2
38	11523.6
38.2	9229.76
38.4	9807.75
38.6	7098.42
38.8	8525.33
39	9085.26
39.2	15948.9
39.4	14449.7
39.6	8037.66
39.8	6682.99
40	8416.96
40.2	7477.73
40.4	6592.68
40.6	6141.13
40.8	7604.16
41	6737.18
41.2	7134.55
41.4	7062.3
41.6	9392.32
41.8	17303.5
42	10277.4
42.2	7333.23
42.4	6737.18
42.6	6628.81
42.8	6990.05
43	9663.25
43.2	7604.16
43.4	6682.99
43.6	6755.24
43.8	7297.11
44	6971.99
44.2	6249.5
44.4	7423.54
44.6	7531.92
44.8	6719.12
45	7568.04
45.2	6701.06
45.4	6339.81
45.6	6068.88
45.8	6267.56
46	5888.26
46.2	6032.76
46.4	6285.63
46.6	7206.8
46.8	5418.64
47	6105.01
47.2	7658.35
47.4	7838.97
47.6	8200.21
47.8	9013.01
48	9085.26
48.2	6592.68
48.4	6032.76
48.6	6014.69
48.8	7748.66
49	5960.51
49.2	6592.68
49.4	7387.42
49.6	7206.8
49.8	7405.48
50	7622.23
50.2	6394
50.4	5834.07
50.6	6032.76
50.8	6321.75
51	8507.27
51.2	8362.77
51.4	5635.39
51.6	5472.83
51.8	6123.07
52	7080.36
52.2	6159.19
52.4	4804.53
52.6	4678.1
52.8	4912.9
53	5888.26
53.2	5003.21
53.4	5021.28
53.6	6086.94
53.8	5581.2
54	3774.99
54.2	4389.1
54.4	4136.23
54.6	5093.53
54.8	8200.21
55	4786.47
55.2	4262.67
55.4	4118.17
55.6	3666.62
55.8	3251.19
56	3847.24
56.2	4118.17
56.4	4082.05
56.6	3504.06
56.8	4027.86
57	4244.6
57.2	3702.74
57.4	3865.3
57.6	3305.37
57.8	3413.75
58	3431.81
58.2	3901.42
58.4	3178.94
58.6	3449.87
58.8	4208.48
59	3630.49
59.2	3052.5
59.4	3576.31
59.6	4100.11
59.8	4912.9
60	4190.42