Folder: GlassyIonicConductorDatabase/database/experiments/MU/xrd/1102/parallel/1101/xrd

Note: README.md
# GlassyIonicConductorDatabase

- Contains daily experimental data of polymeric ionic conductors
  
  - Process (as flowchart), structure, measurements, and properties

- Data are processed by machine learning tools

# Requirements

- Check for env. yml

- This database is processed by "FlowMater", which can treat graph data.
  
  - Visit the following URL for the latest version.
  
  - https://github.com/KanHatakeyama/FlowMater2

# Related paper

- TBD

# History

- version 2022.1.18: initial version

# Author

- Kan Hatakeyama-Sato
- Waseda University
- [Kan Hatakeyama](https://kanhatakeyama.github.io/)
- [satokan@toki.waseda](mailto:satokan@toki.waseda).(japan)

File: 25.TXT
Sample
Comments
Filename	C:\Data\西出研\梅木\20211102オペ\LiTFSI24wt_01_0001_0030-2_C_2θ.raw
Goniometer	SmartLab(In-plane)
Attachment	標準Zステージ
Monochromater	None
X	0
Y	0
Z	0.01756
ScanningMode	2Theta
ScanningType	Continuos Scanning
X-Ray	40kV/30mA
入射スリット	0.300mm
受光スリット1	20.000mm
受光スリット2	20.000mm
None
Start	5
Stop	60
Step	0.02
Speed	21.6746
Theta	0
5	5942.45
5.2	6267.56
5.4	7279.05
5.6	6430.12
5.8	6755.24
6	6899.74
6.2	6321.75
6.4	6195.32
6.6	5689.58
6.8	6014.69
7	5996.63
7.2	6068.88
7.4	5635.39
7.6	6448.19
7.8	5508.95
8	5418.64
8.2	5834.07
8.4	5490.89
8.6	6086.94
8.8	5761.82
9	5635.39
9.2	5545.08
9.4	5725.7
9.6	5707.64
9.8	5852.14
10	5563.14
10.2	5852.14
10.4	5382.52
10.6	5671.51
10.8	7333.23
11	5508.95
11.2	5797.95
11.4	6014.69
11.6	5527.02
11.8	5219.96
12	6050.82
12.2	6068.88
12.4	5816.01
12.6	5924.38
12.8	5653.45
13	5906.32
13.2	5761.82
13.4	5581.2
13.6	5888.26
13.8	5996.63
14	5870.2
14.2	6285.63
14.4	5978.57
14.6	5454.77
14.8	5418.64
15	5111.59
15.2	5400.58
15.4	5256.08
15.6	5436.71
15.8	5490.89
16	5689.58
16.2	5075.46
16.4	5039.34
16.6	4985.15
16.8	5111.59
17	5165.77
17.2	7857.03
17.4	5129.65
17.6	4696.16
17.8	5219.96
18	5057.4
18.2	4967.09
18.4	5545.08
18.6	5256.08
18.8	4985.15
19	5978.57
19.2	7513.85
19.4	5219.96
19.6	5490.89
19.8	4858.72
20	4930.97
20.2	4425.23
20.4	4154.29
20.6	4479.41
20.8	4660.03
21	4623.91
21.2	4930.97
21.4	4714.22
21.6	4352.98
21.8	4443.29
22	4443.29
22.2	4118.17
22.4	4045.92
22.6	4172.36
22.8	4226.54
23	4244.6
23.2	4985.15
23.4	3504.06
23.6	4118.17
23.8	3919.49
24	3648.55
24.2	3594.37
24.4	3504.06
24.6	5075.46
24.8	4226.54
25	4822.59
25.2	3973.67
25.4	3142.81
25.6	3251.19
25.8	3197
26	2980.25
26.2	3088.63
26.4	2853.82
26.6	2673.2
26.8	2745.45
27	2745.45
27.2	2781.57
27.4	2889.94
27.6	2311.95
27.8	2637.07
28	2438.39
28.2	2293.89
28.4	2203.58
28.6	2546.76
28.8	2691.26
29	2998.32
29.2	2149.4
29.4	2384.2
29.6	2293.89
29.8	2113.27
30	1986.84
30.2	2456.45
30.4	2149.4
30.6	1788.15
30.8	2185.52
31	1733.97
31.2	1878.46
31.4	1679.78
31.6	2004.9
31.8	2257.77
32	2203.58
32.2	2275.83
32.4	2221.64
32.6	2149.4
32.8	1842.34
33	2022.96
33.2	2528.7
33.4	2763.51
33.6	1950.71
33.8	1842.34
34	1571.41
34.2	1824.28
34.4	1896.53
34.6	1788.15
34.8	2077.15
35	1535.28
35.2	1625.59
35.4	1733.97
35.6	1246.29
35.8	1643.66
36	1697.84
36.2	1679.78
36.4	1896.53
36.6	1463.03
36.8	1535.28
37	1697.84
37.2	1444.97
37.4	1408.85
37.6	1318.54
37.8	1643.66
38	1860.4
38.2	1806.21
38.4	2203.58
38.6	1932.65
38.8	1065.67
39	1354.66
39.2	1174.04
39.4	1444.97
39.6	1318.54
39.8	1535.28
40	1282.41
40.2	1318.54
40.4	1318.54
40.6	1210.16
40.8	1517.22
41	1119.85
41.2	1354.66
41.4	1264.35
41.6	1372.72
41.8	1282.41
42	993.418
42.2	1137.92
42.4	1210.16
42.6	1300.47
42.8	866.983
43	1065.67
43.2	1264.35
43.4	1264.35
43.6	1354.66
43.8	1101.79
44	1426.91
44.2	1155.98
44.4	1372.72
44.6	1210.16
44.8	993.418
45	1408.85
45.2	975.356
45.4	993.418
45.6	1101.79
45.8	812.797
46	722.486
46.2	957.294
46.4	1119.85
46.6	993.418
46.8	993.418
47	1101.79
47.2	1101.79
47.4	1300.47
47.6	848.921
47.8	975.356
48	975.356
48.2	957.294
48.4	1119.85
48.6	686.362
48.8	975.356
49	812.797
49.2	704.424
49.4	704.424
49.6	866.983
49.8	885.045
50	975.356
50.2	975.356
50.4	830.859
50.6	993.418
50.8	1011.48
51	903.107
51.2	1011.48
51.4	830.859
51.6	794.734
51.8	776.672
52	758.61
52.2	794.734
52.4	939.232
52.6	740.548
52.8	885.045
53	686.362
53.2	722.486
53.4	686.362
53.6	668.299
53.8	668.299
54	866.983
54.2	830.859
54.4	794.734
54.6	885.045
54.8	668.299
55	812.797
55.2	668.299
55.4	776.672
55.6	830.859
55.8	650.237
56	614.113
56.2	523.802
56.4	740.548
56.6	830.859
56.8	758.61
57	596.051
57.2	559.927
57.4	433.492
57.6	722.486
57.8	812.797
58	830.859
58.2	632.175
58.4	577.989
58.6	614.113
58.8	794.734
59	632.175
59.2	704.424
59.4	668.299
59.6	614.113
59.8	722.486
60	668.299

60	812.797
59.98	379.305
60	270.932

File: 50.TXT
Sample
Comments
Filename	C:\Data\西出研\梅木\20211102オペ\LiTFSI24wt_02_0002_0049-1_C_2θ.raw
Goniometer	SmartLab(In-plane)
Attachment	標準Zステージ
Monochromater	None
X	0
Y	0
Z	0.01756
ScanningMode	2Theta
ScanningType	Continuos Scanning
X-Ray	40kV/30mA
入射スリット	0.300mm
受光スリット1	20.000mm
受光スリット2	20.000mm
None
Start	5
Stop	60
Step	0.02
Speed	21.6746
Theta	0
5	6791.37
5.2	7170.67
5.4	6321.75
5.6	6520.44
5.8	6466.25
6	6195.32
6.2	6827.49
6.4	5996.63
6.6	6159.19
6.8	6105.01
7	5653.45
7.2	6050.82
7.4	6014.69
7.6	6231.44
7.8	5834.07
8	5761.82
8.2	5870.2
8.4	5924.38
8.6	5617.33
8.8	5382.52
9	5545.08
9.2	5870.2
9.4	5183.84
9.6	5816.01
9.8	5653.45
10	5292.21
10.2	5942.45
10.4	5599.27
10.6	6719.12
10.8	6863.62
11	5238.02
11.2	5779.89
11.4	5527.02
11.6	5960.51
11.8	5707.64
12	6159.19
12.2	5671.51
12.4	5816.01
12.6	5942.45
12.8	6177.25
13	6014.69
13.2	5508.95
13.4	5743.76
13.6	5563.14
13.8	5743.76
14	6014.69
14.2	5834.07
14.4	5942.45
14.6	6195.32
14.8	5942.45
15	5256.08
15.2	5725.7
15.4	5527.02
15.6	6430.12
15.8	5761.82
16	5563.14
16.2	5003.21
16.4	5274.15
16.6	5075.46
16.8	5238.02
17	5888.26
17.2	7857.03
17.4	5075.46
17.6	5021.28
17.8	4623.91
18	5129.65
18.2	4190.42
18.4	5545.08
18.6	4515.54
18.8	4696.16
19	5725.7
19.2	7549.98
19.4	4840.66
19.6	4389.1
19.8	5201.9
20	4876.78
20.2	4280.73
20.4	4678.1
20.6	4443.29
20.8	4208.48
21	3901.42
21.2	4750.34
21.4	4461.35
21.6	4786.47
21.8	4190.42
22	3793.05
22.2	4045.92
22.4	4316.85
22.6	4298.79
22.8	4262.67
23	4678.1
23.2	5039.34
23.4	4389.1
23.6	4118.17
23.8	3594.37
24	3955.61
24.2	3829.18
24.4	4136.23
24.6	5816.01
24.8	5201.9
25	4298.79
25.2	3233.12
25.4	2835.76
25.6	3558.24
25.8	3413.75
26	2998.32
26.2	3016.38
26.4	3178.94
26.6	2564.82
26.8	2673.2
27	2908.01
27.2	2673.2
27.4	2582.89
27.6	2799.63
27.8	2221.64
28	2655.14
28.2	2781.57
28.4	2438.39
28.6	2330.02
28.8	2619.01
29	2510.64
29.2	2149.4
29.4	2004.9
29.6	2330.02
29.8	2221.64
30	1932.65
30.2	2149.4
30.4	2239.71
30.6	2041.02
30.8	1986.84
31	2149.4
31.2	2149.4
31.4	2185.52
31.6	1932.65
31.8	2041.02
32	2167.46
32.2	1950.71
32.4	1968.77
32.6	1697.84
32.8	2059.08
33	2113.27
33.2	3034.44
33.4	3016.38
33.6	2077.15
33.8	1878.46
34	1589.47
34.2	1842.34
34.4	1878.46
34.6	1535.28
34.8	1860.4
35	1752.03
35.2	1697.84
35.4	2022.96
35.6	1372.72
35.8	1444.97
36	1733.97
36.2	1408.85
36.4	1643.66
36.6	1463.03
36.8	1643.66
37	1336.6
37.2	1481.1
37.4	1571.41
37.6	1246.29
37.8	1444.97
38	2095.21
38.2	2257.77
38.4	1824.28
38.6	1535.28
38.8	1625.59
39	1463.03
39.2	1300.47
39.4	1607.53
39.6	1119.85
39.8	1228.23
40	1499.16
40.2	1119.85
40.4	1047.6
40.6	1246.29
40.8	1444.97
41	1444.97
41.2	1174.04
41.4	1155.98
41.6	1174.04
41.8	1354.66
42	1192.1
42.2	1083.73
42.4	1481.1
42.6	1174.04
42.8	1372.72
43	1210.16
43.2	1426.91
43.4	1029.54
43.6	1192.1
43.8	1246.29
44	1372.72
44.2	1300.47
44.4	1535.28
44.6	1083.73
44.8	957.294
45	1246.29
45.2	1155.98
45.4	957.294
45.6	1101.79
45.8	740.548
46	1119.85
46.2	1228.23
46.4	993.418
46.6	1011.48
46.8	939.232
47	921.169
47.2	1047.6
47.4	1228.23
47.6	1029.54
47.8	1065.67
48	1174.04
48.2	1101.79
48.4	1065.67
48.6	1029.54
48.8	993.418
49	885.045
49.2	975.356
49.4	740.548
49.6	758.61
49.8	776.672
50	921.169
50.2	830.859
50.4	668.299
50.6	866.983
50.8	957.294
51	903.107
51.2	848.921
51.4	957.294
51.6	794.734
51.8	650.237
52	614.113
52.2	704.424
52.4	451.554
52.6	758.61
52.8	957.294
53	722.486
53.2	722.486
53.4	848.921
53.6	812.797
53.8	722.486
54	704.424
54.2	1083.73
54.4	505.74
54.6	776.672
54.8	812.797
55	487.678
55.2	686.362
55.4	722.486
55.6	758.61
55.8	812.797
56	559.927
56.2	921.169
56.4	812.797
56.6	722.486
56.8	577.989
57	505.74
57.2	704.424
57.4	523.802
57.6	740.548
57.8	577.989
58	397.367
58.2	632.175
58.4	632.175
58.6	541.864
58.8	686.362
59	523.802
59.2	577.989
59.4	577.989
59.6	704.424
59.8	848.921
60	776.672
60	361.243

File: 80.TXT
Sample
Comments
Filename	C:\Data\西出研\梅木\20211102オペ\LiTFSI24wt_03_0003_0079-1_C_2θ.raw
Goniometer	SmartLab(In-plane)
Attachment	標準Zステージ
Monochromater	None
X	0
Y	0
Z	0.01756
ScanningMode	2Theta
ScanningType	Continuos Scanning
X-Ray	40kV/30mA
入射スリット	0.300mm
受光スリット1	20.000mm
受光スリット2	20.000mm
None
Start	5
Stop	60
Step	0.02
Speed	21.6746
Theta	0
5	7242.92
5.2	6773.31
5.4	6664.93
5.6	6592.68
5.8	6664.93
6	6105.01
6.2	6394
6.4	6141.13
6.6	6484.31
6.8	6520.44
7	6448.19
7.2	6086.94
7.4	6574.62
7.6	6520.44
7.8	5382.52
8	5779.89
8.2	5364.46
8.4	5978.57
8.6	5545.08
8.8	5852.14
9	5238.02
9.2	6123.07
9.4	5346.4
9.6	6159.19
9.8	5527.02
10	5563.14
10.2	5743.76
10.4	5238.02
10.6	6592.68
10.8	6845.55
11	6068.88
11.2	5165.77
11.4	5581.2
11.6	6357.88
11.8	5256.08
12	5924.38
12.2	6159.19
12.4	5779.89
12.6	5816.01
12.8	5346.4
13	6502.37
13.2	5581.2
13.4	6105.01
13.6	6123.07
13.8	5111.59
14	6231.44
14.2	5834.07
14.4	5870.2
14.6	6159.19
14.8	6195.32
15	5779.89
15.2	5725.7
15.4	5924.38
15.6	5581.2
15.8	5996.63
16	5436.71
16.2	4949.03
16.4	5183.84
16.6	5364.46
16.8	4876.78
17	5852.14
17.2	6791.37
17.4	5201.9
17.6	5617.33
17.8	4894.84
18	4840.66
18.2	5129.65
18.4	5238.02
18.6	4912.9
18.8	4858.72
19	7297.11
19.2	7531.92
19.4	5581.2
19.6	5274.15
19.8	4894.84
20	4118.17
20.2	4515.54
20.4	4389.1
20.6	3973.67
20.8	4226.54
21	4696.16
21.2	4154.29
21.4	4461.35
21.6	4678.1
21.8	4136.23
22	4280.73
22.2	3865.3
22.4	4316.85
22.6	4298.79
22.8	4063.98
23	4912.9
23.2	4208.48
23.4	3973.67
23.6	3865.3
23.8	3811.11
24	3774.99
24.2	3937.55
24.4	3684.68
24.6	5581.2
24.8	5147.71
25	4063.98
25.2	3106.69
25.4	3305.37
25.6	3178.94
25.8	2908.01
26	3269.25
26.2	2926.07
26.4	3323.44
26.6	2781.57
26.8	2908.01
27	2293.89
27.2	2655.14
27.4	2600.95
27.6	2691.26
27.8	2600.95
28	2600.95
28.2	2564.82
28.4	2022.96
28.6	2456.45
28.8	2889.94
29	2600.95
29.2	1950.71
29.4	2366.14
29.6	1643.66
29.8	1932.65
30	2095.21
30.2	2330.02
30.4	2113.27
30.6	1932.65
30.8	1643.66
31	2059.08
31.2	1896.53
31.4	1860.4
31.6	2022.96
31.8	2004.9
32	2131.33
32.2	1806.21
32.4	2022.96
32.6	1860.4
32.8	1752.03
33	2366.14
33.2	2998.32
33.4	2366.14
33.6	1824.28
33.8	1733.97
34	1878.46
34.2	1715.9
34.4	1589.47
34.6	1571.41
34.8	1968.77
35	1806.21
35.2	1950.71
35.4	1770.09
35.6	1661.72
35.8	1481.1
36	1643.66
36.2	1517.22
36.4	1788.15
36.6	1463.03
36.8	1643.66
37	1770.09
37.2	1824.28
37.4	1517.22
37.6	1535.28
37.8	1788.15
38	2619.01
38.2	1950.71
38.4	1697.84
38.6	1119.85
38.8	1137.92
39	1589.47
39.2	1661.72
39.4	1282.41
39.6	1210.16
39.8	1408.85
40	1553.34
40.2	1065.67
40.4	1481.1
40.6	1535.28
40.8	1228.23
41	1553.34
41.2	1499.16
41.4	975.356
41.6	1083.73
41.8	1192.1
42	1083.73
42.2	1155.98
42.4	1101.79
42.6	1192.1
42.8	1444.97
43	1192.1
43.2	1083.73
43.4	1119.85
43.6	1463.03
43.8	1101.79
44	1354.66
44.2	1300.47
44.4	1607.53
44.6	1174.04
44.8	1065.67
45	1282.41
45.2	1210.16
45.4	1029.54
45.6	993.418
45.8	975.356
46	1011.48
46.2	1011.48
46.4	830.859
46.6	1300.47
46.8	1101.79
47	975.356
47.2	1264.35
47.4	1155.98
47.6	957.294
47.8	1119.85
48	1192.1
48.2	830.859
48.4	1065.67
48.6	939.232
48.8	993.418
49	758.61
49.2	686.362
49.4	993.418
49.6	921.169
49.8	921.169
50	830.859
50.2	848.921
50.4	993.418
50.6	1029.54
50.8	939.232
51	1029.54
51.2	866.983
51.4	632.175
51.6	921.169
51.8	668.299
52	686.362
52.2	830.859
52.4	722.486
52.6	704.424
52.8	704.424
53	686.362
53.2	758.61
53.4	704.424
53.6	812.797
53.8	885.045
54	993.418
54.2	722.486
54.4	740.548
54.6	740.548
54.8	812.797
55	848.921
55.2	794.734
55.4	686.362
55.6	993.418
55.8	614.113
56	686.362
56.2	740.548
56.4	596.051
56.6	686.362
56.8	686.362
57	541.864
57.2	668.299
57.4	596.051
57.6	596.051
57.8	614.113
58	776.672
58.2	668.299
58.4	686.362
58.6	632.175
58.8	668.299
59	686.362
59.2	740.548
59.4	577.989
59.6	740.548
59.8	776.672
60	794.734
60	505.74

File: 120.TXT
Sample
Comments
Filename	C:\Data\西出研\梅木\20211102オペ\LiTFSI24wt_05_0005_0119-1_C_2θ.raw
Goniometer	SmartLab(In-plane)
Attachment	標準Zステージ
Monochromater	None
X	0
Y	0
Z	0.01756
ScanningMode	2Theta
ScanningType	Continuos Scanning
X-Ray	40kV/30mA
入射スリット	0.300mm
受光スリット1	20.000mm
受光スリット2	20.000mm
None
Start	5
Stop	60
Step	0.02
Speed	21.6746
Theta	0
5	8037.66
5.2	6827.49
5.4	6628.81
5.6	5942.45
5.8	6791.37
6	6646.87
6.2	6339.81
6.4	6141.13
6.6	5960.51
6.8	6339.81
7	6086.94
7.2	5671.51
7.4	6321.75
7.6	5725.7
7.8	5653.45
8	5599.27
8.2	5563.14
8.4	5256.08
8.6	5364.46
8.8	6177.25
9	5545.08
9.2	5942.45
9.4	5490.89
9.6	5689.58
9.8	5201.9
10	5942.45
10.2	5508.95
10.4	5201.9
10.6	5743.76
10.8	6990.05
11	5635.39
11.2	6412.06
11.4	5906.32
11.6	5581.2
11.8	5725.7
12	5599.27
12.2	6105.01
12.4	5653.45
12.6	5545.08
12.8	5888.26
13	5581.2
13.2	5653.45
13.4	5761.82
13.6	6068.88
13.8	5779.89
14	5689.58
14.2	5797.95
14.4	5743.76
14.6	5707.64
14.8	6267.56
15	5292.21
15.2	6141.13
15.4	5689.58
15.6	5472.83
15.8	5454.77
16	5454.77
16.2	5075.46
16.4	4804.53
16.6	4930.97
16.8	4876.78
17	6484.31
17.2	6213.38
17.4	5310.27
17.6	5129.65
17.8	4840.66
18	5147.71
18.2	5111.59
18.4	5003.21
18.6	4262.67
18.8	5057.4
19	8236.34
19.2	6195.32
19.4	5256.08
19.6	5021.28
19.8	4136.23
20	4840.66
20.2	5129.65
20.4	4244.6
20.6	4876.78
20.8	4407.16
21	4660.03
21.2	4389.1
21.4	4641.97
21.6	4822.59
21.8	4244.6
22	4100.11
22.2	3684.68
22.4	4244.6
22.6	3901.42
22.8	4768.41
23	5635.39
23.2	4027.86
23.4	3955.61
23.6	3467.93
23.8	3612.43
24	3558.24
24.2	3648.55
24.4	3829.18
24.6	6123.07
24.8	5165.77
25	3522.12
25.2	3594.37
25.4	3413.75
25.6	2799.63
25.8	3251.19
26	2691.26
26.2	3251.19
26.4	2745.45
26.6	2980.25
26.8	2546.76
27	2998.32
27.2	2582.89
27.4	2275.83
27.6	2619.01
27.8	2600.95
28	2311.95
28.2	2438.39
28.4	2420.33
28.6	2619.01
28.8	3124.75
29	2077.15
29.2	2348.08
29.4	2185.52
29.6	2330.02
29.8	1968.77
30	2185.52
30.2	2041.02
30.4	2185.52
30.6	2004.9
30.8	2275.83
31	2149.4
31.2	1914.59
31.4	2041.02
31.6	1878.46
31.8	2167.46
32	1499.16
32.2	1607.53
32.4	1824.28
32.6	1336.6
32.8	2402.27
33	2582.89
33.2	2691.26
33.4	2149.4
33.6	1860.4
33.8	1932.65
34	1860.4
34.2	1697.84
34.4	1824.28
34.6	2366.14
34.8	1661.72
35	1589.47
35.2	1643.66
35.4	1715.9
35.6	1932.65
35.8	1426.91
36	1444.97
36.2	1860.4
36.4	1354.66
36.6	1517.22
36.8	1878.46
37	1336.6
37.2	1426.91
37.4	1661.72
37.6	1806.21
37.8	2275.83
38	1986.84
38.2	1535.28
38.4	1408.85
38.6	1589.47
38.8	1499.16
39	1210.16
39.2	1336.6
39.4	1210.16
39.6	993.418
39.8	1228.23
40	1210.16
40.2	1246.29
40.4	1282.41
40.6	1372.72
40.8	1065.67
41	1246.29
41.2	1246.29
41.4	1264.35
41.6	1119.85
41.8	1282.41
42	1246.29
42.2	1264.35
42.4	1481.1
42.6	1228.23
42.8	1408.85
43	1228.23
43.2	1372.72
43.4	1065.67
43.6	1065.67
43.8	1697.84
44	1264.35
44.2	1264.35
44.4	1336.6
44.6	1192.1
44.8	1282.41
45	1318.54
45.2	975.356
45.4	1083.73
45.6	975.356
45.8	1047.6
46	740.548
46.2	1210.16
46.4	1083.73
46.6	1137.92
46.8	1210.16
47	1174.04
47.2	885.045
47.4	993.418
47.6	794.734
47.8	1137.92
48	1011.48
48.2	921.169
48.4	1011.48
48.6	1101.79
48.8	722.486
49	957.294
49.2	1029.54
49.4	1047.6
49.6	939.232
49.8	830.859
50	885.045
50.2	921.169
50.4	830.859
50.6	1047.6
50.8	993.418
51	866.983
51.2	1029.54
51.4	885.045
51.6	848.921
51.8	903.107
52	650.237
52.2	848.921
52.4	830.859
52.6	668.299
52.8	921.169
53	830.859
53.2	614.113
53.4	885.045
53.6	650.237
53.8	1029.54
54	776.672
54.2	704.424
54.4	939.232
54.6	740.548
54.8	794.734
55	848.921
55.2	650.237
55.4	885.045
55.6	668.299
55.8	632.175
56	650.237
56.2	650.237
56.4	577.989
56.6	668.299
56.8	722.486
57	559.927
57.2	848.921
57.4	812.797
57.6	614.113
57.8	541.864
58	577.989
58.2	740.548
58.4	758.61
58.6	614.113
58.8	451.554
59	433.492
59.2	812.797
59.4	614.113
59.6	794.734
59.8	650.237
60	614.113