Folder: GlassyIonicConductorDatabase/database/experiments/MU/normal/1130_ppo_chloranil_liftfsi/80/eis_data

Note: README.md
# GlassyIonicConductorDatabase

- Contains daily experimental data of polymeric ionic conductors
  
  - Process (as flowchart), structure, measurements, and properties

- Data are processed by machine learning tools

# Requirements

- Check for env. yml

- This database is processed by "FlowMater", which can treat graph data.
  
  - Visit the following URL for the latest version.
  
  - https://github.com/KanHatakeyama/FlowMater2

# Related paper

- TBD

# History

- version 2022.1.18: initial version

# Author

- Kan Hatakeyama-Sato
- Waseda University
- [Kan Hatakeyama](https://kanhatakeyama.github.io/)
- [satokan@toki.waseda](mailto:satokan@toki.waseda).(japan)

File: 2.txt
File.......:  cell2ppoclliftfsi40wt - DEC,01.2021

System.....:
Potential..:  0.018V
Current....:  -52.749nA
Temperature:  -0.8 +-0.1 C
Time.......:  16:20:37 - 16:21:24
Comment....:

              Main
time.......:  13080 s
Impedance samples

Lines:   45
Columns: 5

Number   Frequency/Hz   impedance R/Ohm   impedance I/Ohm   Significance   Time/s
   1      1.0000e+06       6.3870e+01       -4.1782e+00        0.999           0.0
   2      7.5549e+05       6.4185e+01       -3.9320e+00        0.999           1.0
   3      5.7077e+05       6.4547e+01       -4.0349e+00        0.999           1.5
   4      4.3121e+05       6.4136e+01       -4.2116e+00        1.000           2.3
   5      3.2578e+05       6.4286e+01       -4.5947e+00        1.000           3.0
   6      2.4612e+05       6.4713e+01       -5.1587e+00        1.000           3.4
   7      1.8594e+05       6.5388e+01       -5.8982e+00        1.000           3.8
   8      1.4048e+05       6.6144e+01       -6.8720e+00        1.000           4.3
   9      1.0613e+05       6.7028e+01       -8.0734e+00        1.000           4.8
  10      8.0180e+04       6.8007e+01       -9.6087e+00        1.000           5.2
  11      6.0575e+04       6.9063e+01       -1.1429e+01        1.000           5.7
  12      4.5764e+04       6.9879e+01       -1.3688e+01        1.000           6.1
  13      3.4574e+04       7.1005e+01       -1.6395e+01        1.000           6.6
  14      2.6121e+04       7.3049e+01       -1.9622e+01        1.000           7.0
  15      1.9734e+04       7.5420e+01       -2.3540e+01        1.000           7.5
  16      1.4909e+04       7.8218e+01       -2.8191e+01        1.000           7.9
  17      1.1263e+04       8.1756e+01       -3.3829e+01        1.000           8.4
  18      8.5095e+03       8.5851e+01       -4.0597e+01        0.999           8.8
  19      6.4288e+03       9.0486e+01       -4.8850e+01        0.999           9.3
  20      4.8569e+03       9.6157e+01       -5.8847e+01        1.000           9.8
  21      3.6694e+03       1.0266e+02       -7.0970e+01        1.000          10.2
  22      2.7722e+03       1.0969e+02       -8.6094e+01        1.000          10.6
  23      2.0944e+03       1.1796e+02       -1.0479e+02        0.999          11.1
  24      1.5823e+03       1.2764e+02       -1.2805e+02        0.999          11.6
  25      1.1954e+03       1.3914e+02       -1.5718e+02        1.000          12.0
  26      9.0311e+02       1.5310e+02       -1.9363e+02        0.999          12.5
  27      6.8229e+02       1.6985e+02       -2.3947e+02        0.999          12.9
  28      5.1546e+02       1.9000e+02       -2.9711e+02        0.998          13.4
  29      3.8943e+02       2.1528e+02       -3.6971e+02        0.998          13.9
  30      2.9421e+02       2.4657e+02       -4.6091e+02        0.998          14.3
  31      2.2227e+02       2.8664e+02       -5.7525e+02        0.999          14.8
  32      1.6793e+02       3.3361e+02       -7.1276e+02        0.998          15.6
  33      1.2687e+02       3.9733e+02       -8.8994e+02        0.998          16.3
  34      9.5846e+01       4.7961e+02       -1.1107e+03        0.998          16.9
  35      7.2411e+01       5.8594e+02       -1.3840e+03        0.998          17.5
  36      5.4092e+01       7.2491e+02       -1.7358e+03        0.998          18.9
  37      3.9533e+01       9.2620e+02       -2.2089e+03        0.998          20.8
  38      2.8174e+01       1.2166e+03       -2.8558e+03        0.998          22.3
  39      1.9503e+01       1.6487e+03       -3.7531e+03        0.998          23.8
  40      1.3058e+01       2.3036e+03       -5.0210e+03        0.998          25.8
  41      8.4196e+00       3.3226e+03       -6.8345e+03        0.998          28.5
  42      5.2123e+00       4.9390e+03       -9.4717e+03        0.998          31.6
  43      3.0979e+00       7.4996e+03       -1.3277e+04        0.998          35.0
  44      1.7783e+00       1.1514e+04       -1.8773e+04        0.998          40.0
  45      1.0000e+00       1.7487e+04       -2.6407e+04        0.997          44.7

File: 4.txt
File.......:  cell4ppoclliftfsi40wt - DEC,01.2021

System.....:
Potential..:  -0.005V
Current....:  -26.655nA
Temperature:  -0.8 +-0.0 C
Time.......:  16:24:51 - 16:25:38
Comment....:

              Main
time.......:  13080 s
Impedance samples

Lines:   45
Columns: 5

Number   Frequency/Hz   impedance R/Ohm   impedance I/Ohm   Significance   Time/s
   1      1.0000e+06       5.9420e+01       -6.9396e+00        0.999           0.0
   2      7.5549e+05       6.1355e+01       -7.5069e+00        0.999           1.0
   3      5.7077e+05       5.9463e+01       -8.2764e+00        1.000           1.5
   4      4.3121e+05       5.9935e+01       -9.3931e+00        1.000           2.3
   5      3.2578e+05       6.2420e+01       -1.0821e+01        1.000           3.0
   6      2.4612e+05       6.5320e+01       -1.2542e+01        1.000           3.4
   7      1.8594e+05       6.6988e+01       -1.4585e+01        1.000           3.8
   8      1.4048e+05       7.1634e+01       -1.7055e+01        1.000           4.3
   9      1.0613e+05       7.2243e+01       -1.9954e+01        1.000           4.8
  10      8.0180e+04       7.4811e+01       -2.3471e+01        1.000           5.2
  11      6.0575e+04       7.6089e+01       -2.7577e+01        1.000           5.7
  12      4.5764e+04       8.1279e+01       -3.2519e+01        1.000           6.1
  13      3.4574e+04       8.7044e+01       -3.8395e+01        1.000           6.6
  14      2.6121e+04       9.2392e+01       -4.5314e+01        1.000           7.0
  15      1.9734e+04       9.5532e+01       -5.3618e+01        1.000           7.5
  16      1.4909e+04       1.0370e+02       -6.3516e+01        1.000           7.9
  17      1.1263e+04       1.1141e+02       -7.5476e+01        0.999           8.4
  18      8.5095e+03       1.2103e+02       -8.9847e+01        0.999           8.8
  19      6.4288e+03       1.3488e+02       -1.0738e+02        0.999           9.3
  20      4.8569e+03       1.4724e+02       -1.2867e+02        0.999           9.8
  21      3.6694e+03       1.6054e+02       -1.5458e+02        0.999          10.2
  22      2.7722e+03       1.7275e+02       -1.8674e+02        0.999          10.6
  23      2.0944e+03       1.9274e+02       -2.2641e+02        0.999          11.1
  24      1.5823e+03       2.1410e+02       -2.7551e+02        0.999          11.6
  25      1.1954e+03       2.4080e+02       -3.3646e+02        0.999          12.0
  26      9.0311e+02       2.7362e+02       -4.1186e+02        0.999          12.5
  27      6.8229e+02       3.1352e+02       -5.0546e+02        0.999          12.9
  28      5.1546e+02       3.5994e+02       -6.1661e+02        1.000          13.7
  29      3.8943e+02       4.2255e+02       -7.5884e+02        0.999          14.4
  30      2.9421e+02       5.0095e+02       -9.3407e+02        1.000          14.8
  31      2.2227e+02       6.0056e+02       -1.1493e+03        0.999          15.3
  32      1.6793e+02       7.2478e+02       -1.4126e+03        0.999          15.7
  33      1.2687e+02       8.8162e+02       -1.7331e+03        0.999          16.2
  34      9.5846e+01       1.0803e+03       -2.1227e+03        0.999          16.8
  35      7.2411e+01       1.3301e+03       -2.5916e+03        0.999          17.4
  36      5.4092e+01       1.6500e+03       -3.1788e+03        1.000          18.8
  37      3.9533e+01       2.0943e+03       -3.9462e+03        1.000          20.7
  38      2.8174e+01       2.7138e+03       -4.9648e+03        1.000          22.1
  39      1.9503e+01       3.5977e+03       -6.3253e+03        0.999          24.2
  40      1.3058e+01       4.8318e+03       -8.1941e+03        0.999          26.5
  41      8.4196e+00       6.6856e+03       -1.0790e+04        0.999          28.7
  42      5.2123e+00       9.4632e+03       -1.4445e+04        0.999          31.4
  43      3.0979e+00       1.3650e+04       -1.9569e+04        0.999          34.8
  44      1.7783e+00       1.9968e+04       -2.6753e+04        1.000          39.8
  45      1.0000e+00       2.9021e+04       -3.6369e+04        0.999          44.5

File: 10.txt
File.......:  cell10ppoclliftfsi40wt - DEC,01.2021

System.....:
Potential..:  -0.009V
Current....:  -6.5388nA
Temperature:  -0.8 +-0.1 C
Time.......:  16:26:20 - 16:27:07
Comment....:

              Main
time.......:  13080 s
Impedance samples

Lines:   45
Columns: 5

Number   Frequency/Hz   impedance R/Ohm   impedance I/Ohm   Significance   Time/s
   1      1.0000e+06       2.2797e+01       -1.0088e+00        0.999           0.0
   2      7.5549e+05       2.2447e+01       -1.6590e+00        0.999           1.3
   3      5.7077e+05       2.2365e+01       -2.3335e+00        1.000           1.8
   4      4.3121e+05       2.1781e+01       -3.0496e+00        1.000           2.5
   5      3.2578e+05       2.2634e+01       -3.8394e+00        1.000           3.2
   6      2.4612e+05       2.3483e+01       -4.7050e+00        1.000           3.7
   7      1.8594e+05       2.4505e+01       -5.6920e+00        1.000           4.1
   8      1.4048e+05       2.5607e+01       -6.8256e+00        1.000           4.6
   9      1.0613e+05       2.5782e+01       -8.1391e+00        1.000           5.0
  10      8.0180e+04       2.7511e+01       -9.7031e+00        1.000           5.5
  11      6.0575e+04       2.8601e+01       -1.1582e+01        1.000           5.9
  12      4.5764e+04       2.9771e+01       -1.3844e+01        1.000           6.3
  13      3.4574e+04       3.1150e+01       -1.6628e+01        1.000           6.8
  14      2.6121e+04       3.3367e+01       -1.9974e+01        1.000           7.3
  15      1.9734e+04       3.5533e+01       -2.4114e+01        1.000           7.7
  16      1.4909e+04       3.7886e+01       -2.9243e+01        0.999           8.2
  17      1.1263e+04       4.0032e+01       -3.5657e+01        1.000           8.6
  18      8.5095e+03       4.2780e+01       -4.3546e+01        1.000           9.1
  19      6.4288e+03       4.7653e+01       -5.3925e+01        1.000           9.8
  20      4.8569e+03       5.2971e+01       -6.6221e+01        1.000          10.5
  21      3.6694e+03       5.9529e+01       -8.1382e+01        0.999          10.9
  22      2.7722e+03       6.7533e+01       -1.0022e+02        0.998          11.4
  23      2.0944e+03       7.7215e+01       -1.2352e+02        0.999          11.8
  24      1.5823e+03       8.9386e+01       -1.5234e+02        0.999          12.3
  25      1.1954e+03       1.0413e+02       -1.8799e+02        0.999          12.8
  26      9.0311e+02       1.2260e+02       -2.3204e+02        0.998          13.2
  27      6.8229e+02       1.4473e+02       -2.8649e+02        0.999          13.7
  28      5.1546e+02       1.7267e+02       -3.5374e+02        0.999          14.1
  29      3.8943e+02       2.0673e+02       -4.3694e+02        0.999          14.6
  30      2.9421e+02       2.4821e+02       -5.3935e+02        0.999          15.1
  31      2.2227e+02       2.9922e+02       -6.6057e+02        0.998          15.8
  32      1.6793e+02       3.6356e+02       -8.1506e+02        0.998          16.4
  33      1.2687e+02       4.4328e+02       -1.0058e+03        0.997          16.9
  34      9.5846e+01       5.4216e+02       -1.2420e+03        0.998          17.4
  35      7.2411e+01       6.6464e+02       -1.5323e+03        0.997          18.0
  36      5.4092e+01       8.2070e+02       -1.9069e+03        0.997          19.5
  37      3.9533e+01       1.0353e+03       -2.4124e+03        0.997          21.2
  38      2.8174e+01       1.3332e+03       -3.1109e+03        0.997          22.7
  39      1.9503e+01       1.7631e+03       -4.0947e+03        0.997          24.4
  40      1.3058e+01       2.4011e+03       -5.5178e+03        0.997          26.2
  41      8.4196e+00       3.3762e+03       -7.6182e+03        0.996          28.9
  42      5.2123e+00       4.9287e+03       -1.0816e+04        0.996          32.1
  43      3.0979e+00       7.4416e+03       -1.5691e+04        0.996          35.5
  44      1.7783e+00       1.1561e+04       -2.3210e+04        0.996          40.5
  45      1.0000e+00       1.8066e+04       -3.4336e+04        0.996          45.1