Folder: GlassyIonicConductorDatabase/program/database/experiments/HA/exp164_eis_s87_pmps_chloranil_litfsi/eis_data

Note: README.md
# GlassyIonicConductorDatabase

- Contains daily experimental data of polymeric ionic conductors
  
  - Process (as flowchart), structure, measurements, and properties

- Data are processed by machine learning tools

# Requirements

- Check for env. yml

- This database is processed by "FlowMater", which can treat graph data.
  
  - Visit the following URL for the latest version.
  
  - https://github.com/KanHatakeyama/FlowMater2

# Related paper

- TBD

# History

- version 2022.1.18: initial version

# Author

- Kan Hatakeyama-Sato
- Waseda University
- [Kan Hatakeyama](https://kanhatakeyama.github.io/)
- [satokan@toki.waseda](mailto:satokan@toki.waseda).(japan)

File: 4.txt
File.......:  202108091238_c-237_eis_rt - AUG,09.2021

System.....:
Potential..:  -0.005V
Current....:  -5.093nA
Temperature:  -0.7 +-0.1 C
Time.......:  12:38:27 - 12:39:15
Comment....:

Impedance samples

Lines:   45
Columns: 5

Number   Frequency/Hz   impedance R/Ohm   impedance I/Ohm   Significance   Time/s
   1      1.0000e+06      -7.4103e+00       -7.0770e+02        0.997           0.0
   2      7.5549e+05       4.1579e+00       -9.3697e+02        0.997           1.8
   3      5.7077e+05      -4.2925e+00       -1.2269e+03        0.994           2.3
   4      4.3121e+05       6.8091e+01       -1.6116e+03        0.998           3.3
   5      3.2578e+05       9.6943e+01       -2.1055e+03        0.997           4.2
   6      2.4612e+05       1.3581e+02       -2.7685e+03        0.997           4.7
   7      1.8594e+05       2.0369e+02       -3.6221e+03        0.996           5.1
   8      1.4048e+05       2.6765e+02       -4.7466e+03        0.998           5.5
   9      1.0613e+05       3.6326e+02       -6.2005e+03        0.998           6.0
  10      8.0180e+04       5.1745e+02       -8.2116e+03        0.998           6.4
  11      6.0575e+04       8.3524e+02       -1.0695e+04        0.998           7.1
  12      4.5764e+04       1.1274e+03       -1.4022e+04        0.998           7.8
  13      3.4574e+04       1.5568e+03       -1.8377e+04        0.999           8.2
  14      2.6121e+04       2.2073e+03       -2.4058e+04        0.999           8.7
  15      1.9734e+04       3.2429e+03       -3.1522e+04        0.997           9.2
  16      1.4909e+04       4.8604e+03       -4.1256e+04        0.997           9.6
  17      1.1263e+04       7.3877e+03       -5.3897e+04        0.998          10.1
  18      8.5095e+03       1.1583e+04       -7.0116e+04        0.997          10.5
  19      6.4288e+03       1.9511e+04       -9.1068e+04        0.999          11.2
  20      4.8569e+03       3.0356e+04       -1.1706e+05        0.999          11.9
  21      3.6694e+03       4.7996e+04       -1.4862e+05        0.997          12.4
  22      2.7722e+03       7.4947e+04       -1.8520e+05        0.999          12.8
  23      2.0944e+03       1.1510e+05       -2.2350e+05        0.998          13.3
  24      1.5823e+03       1.7056e+05       -2.5854e+05        0.998          13.7
  25      1.1954e+03       2.3962e+05       -2.8284e+05        0.998          14.2
  26      9.0311e+02       3.1695e+05       -2.8948e+05        0.999          14.7
  27      6.8229e+02       3.9193e+05       -2.7724e+05        0.999          15.1
  28      5.1546e+02       4.5620e+05       -2.5030e+05        0.998          15.6
  29      3.8943e+02       5.0554e+05       -2.1610e+05        1.000          16.0
  30      2.9421e+02       5.4063e+05       -1.8082e+05        0.999          16.5
  31      2.2227e+02       5.6776e+05       -1.5039e+05        0.999          17.0
  32      1.6793e+02       5.8343e+05       -1.2439e+05        0.999          17.4
  33      1.2687e+02       5.9530e+05       -1.0442e+05        1.000          17.9
  34      9.5846e+01       6.0601e+05       -9.2764e+04        1.000          18.4
  35      7.2411e+01       6.1564e+05       -7.8891e+04        1.000          19.2
  36      5.4092e+01       6.2996e+05       -8.9453e+04        1.000          20.9
  37      3.9533e+01       6.2994e+05       -6.3139e+04        0.999          22.6
  38      2.8174e+01       6.3553e+05       -7.0185e+04        0.999          24.0
  39      1.9503e+01       6.4442e+05       -7.3547e+04        0.997          25.6
  40      1.3058e+01       6.5820e+05       -8.0714e+04        0.999          27.5
  41      8.4196e+00       6.7317e+05       -9.6960e+04        0.998          29.6
  42      5.2123e+00       6.9402e+05       -1.2233e+05        0.999          32.3
  43      3.0979e+00       7.2448e+05       -1.6261e+05        1.000          35.6
  44      1.7783e+00       7.6577e+05       -2.2540e+05        1.000          40.5
  45      1.0000e+00       8.2405e+05       -3.2333e+05        1.000          45.1

File: 8.txt
File.......:  202108091241_c-238_eis_rt - AUG,09.2021

System.....:
Potential..:  -0.002V
Current....:  -42.935nA
Temperature:  -0.7 +-0.1 C
Time.......:  12:41:26 - 12:42:13
Comment....:

Impedance samples

Lines:   45
Columns: 5

Number   Frequency/Hz   impedance R/Ohm   impedance I/Ohm   Significance   Time/s
   1      1.0000e+06       4.7047e+01       -1.1364e+01        0.999           0.0
   2      7.5549e+05       4.8447e+01       -1.3013e+01        0.999           1.5
   3      5.7077e+05       4.9952e+01       -1.5056e+01        1.000           2.1
   4      4.3121e+05       5.1793e+01       -1.7467e+01        1.000           2.8
   5      3.2578e+05       5.4043e+01       -2.0497e+01        1.000           3.5
   6      2.4612e+05       5.6596e+01       -2.4062e+01        1.000           3.9
   7      1.8594e+05       5.9623e+01       -2.8449e+01        1.000           4.4
   8      1.4048e+05       6.3875e+01       -3.3952e+01        1.000           5.1
   9      1.0613e+05       6.8105e+01       -4.0332e+01        1.000           5.7
  10      8.0180e+04       7.3034e+01       -4.8095e+01        1.000           6.2
  11      6.0575e+04       7.8831e+01       -5.7357e+01        1.000           6.6
  12      4.5764e+04       8.5716e+01       -6.8654e+01        0.999           7.1
  13      3.4574e+04       9.3878e+01       -8.2377e+01        0.999           7.5
  14      2.6121e+04       1.0381e+02       -9.8925e+01        0.999           8.0
  15      1.9734e+04       1.1578e+02       -1.1901e+02        0.998           8.4
  16      1.4909e+04       1.3038e+02       -1.4318e+02        0.999           8.9
  17      1.1263e+04       1.4826e+02       -1.7236e+02        0.999           9.3
  18      8.5095e+03       1.7011e+02       -2.0706e+02        0.999           9.8
  19      6.4288e+03       1.9674e+02       -2.4859e+02        0.999          10.3
  20      4.8569e+03       2.2937e+02       -2.9760e+02        0.998          10.7
  21      3.6694e+03       2.6986e+02       -3.5508e+02        0.999          11.2
  22      2.7722e+03       3.1823e+02       -4.2299e+02        1.000          11.6
  23      2.0944e+03       3.7680e+02       -5.0221e+02        0.999          12.1
  24      1.5823e+03       4.4431e+02       -5.9033e+02        0.999          12.8
  25      1.1954e+03       5.2823e+02       -6.9693e+02        0.998          13.5
  26      9.0311e+02       6.2910e+02       -8.2017e+02        0.999          13.9
  27      6.8229e+02       7.4866e+02       -9.6237e+02        0.999          14.4
  28      5.1546e+02       8.9023e+02       -1.1259e+03        0.998          14.9
  29      3.8943e+02       1.0586e+03       -1.3139e+03        0.998          15.3
  30      2.9421e+02       1.2552e+03       -1.5284e+03        0.998          15.8
  31      2.2227e+02       1.4872e+03       -1.7728e+03        0.997          16.2
  32      1.6793e+02       1.7559e+03       -2.0523e+03        0.996          16.7
  33      1.2687e+02       2.0688e+03       -2.3705e+03        0.996          17.2
  34      9.5846e+01       2.4337e+03       -2.7346e+03        0.995          17.7
  35      7.2411e+01       2.8557e+03       -3.1444e+03        0.994          18.3
  36      5.4092e+01       3.3509e+03       -3.6331e+03        0.994          19.7
  37      3.9533e+01       3.9819e+03       -4.2332e+03        0.993          21.4
  38      2.8174e+01       4.7812e+03       -4.9876e+03        0.993          23.2
  39      1.9503e+01       5.8130e+03       -5.9448e+03        0.991          25.2
  40      1.3058e+01       7.1712e+03       -7.1881e+03        0.991          27.1
  41      8.4196e+00       8.9967e+03       -8.8284e+03        0.989          29.3
  42      5.2123e+00       1.1510e+04       -1.1045e+04        0.989          32.0
  43      3.0979e+00       1.4942e+04       -1.3965e+04        0.988          35.3
  44      1.7783e+00       1.9685e+04       -1.7936e+04        0.989          40.2
  45      1.0000e+00       2.6018e+04       -2.2947e+04        0.987          44.8

File: 10.txt
File.......:  202108091245_c-239_eis_rt - AUG,09.2021

System.....:
Potential..:  0.018V
Current....:  -340.82pA
Temperature:  -0.7 +-0.1 C
Time.......:  12:45:51 - 12:46:43
Comment....:

Impedance samples

Lines:   45
Columns: 5

Number   Frequency/Hz   impedance R/Ohm   impedance I/Ohm   Significance   Time/s
   1      1.0000e+06       2.2929e+01       -6.7932e+02        0.998           0.0
   2      7.5549e+05       2.8218e+01       -8.8935e+02        0.997           1.8
   3      5.7077e+05       4.0154e+01       -1.1445e+03        0.990           2.3
   4      4.3121e+05       1.1752e+02       -1.5036e+03        0.997           3.3
   5      3.2578e+05       1.5355e+02       -1.9505e+03        0.997           4.2
   6      2.4612e+05       2.0740e+02       -2.5365e+03        0.999           4.7
   7      1.8594e+05       2.7886e+02       -3.2921e+03        0.998           5.1
   8      1.4048e+05       3.5718e+02       -4.3207e+03        0.997           5.5
   9      1.0613e+05       4.6599e+02       -5.6128e+03        0.998           6.0
  10      8.0180e+04       6.0095e+02       -7.3562e+03        0.999           6.4
  11      6.0575e+04       9.1792e+02       -9.5657e+03        0.999           7.1
  12      4.5764e+04       1.1444e+03       -1.2479e+04        0.998           7.8
  13      3.4574e+04       1.4396e+03       -1.6308e+04        0.998           8.2
  14      2.6121e+04       1.8947e+03       -2.1278e+04        0.998           8.7
  15      1.9734e+04       2.5375e+03       -2.7836e+04        0.998           9.2
  16      1.4909e+04       3.3896e+03       -3.6387e+04        0.999           9.6
  17      1.1263e+04       4.6713e+03       -4.7557e+04        0.999          10.1
  18      8.5095e+03       6.5765e+03       -6.2070e+04        0.998          10.5
  19      6.4288e+03       9.2411e+03       -8.0894e+04        0.998          11.0
  20      4.8569e+03       1.4715e+04       -1.0577e+05        0.997          11.7
  21      3.6694e+03       2.1533e+04       -1.3732e+05        0.999          12.4
  22      2.7722e+03       3.1865e+04       -1.7777e+05        0.999          12.8
  23      2.0944e+03       4.7736e+04       -2.2913e+05        0.998          13.3
  24      1.5823e+03       7.2397e+04       -2.9300e+05        0.998          13.7
  25      1.1954e+03       1.0938e+05       -3.6999e+05        0.999          14.2
  26      9.0311e+02       1.6258e+05       -4.6095e+05        0.999          14.7
  27      6.8229e+02       2.3686e+05       -5.6215e+05        0.999          15.1
  28      5.1546e+02       3.3292e+05       -6.7006e+05        0.998          15.6
  29      3.8943e+02       4.6074e+05       -7.7759e+05        0.998          16.3
  30      2.9421e+02       5.9575e+05       -8.9303e+05        0.999          17.0
  31      2.2227e+02       7.3344e+05       -1.0217e+06        0.996          17.4
  32      1.6793e+02       9.0760e+05       -1.1472e+06        0.998          17.9
  33      1.2687e+02       1.0927e+06       -1.3049e+06        0.997          18.3
  34      9.5846e+01       1.2867e+06       -1.4563e+06        0.998          18.9
  35      7.2411e+01       1.5105e+06       -1.6404e+06        0.998          19.4
  36      5.4092e+01       2.0444e+06       -1.6514e+06        0.997          20.8
  37      3.9533e+01       2.0400e+06       -2.2428e+06        0.995          22.6
  38      2.8174e+01       2.6259e+06       -2.5429e+06        0.968          24.0
  39      1.9503e+01       3.2569e+06       -3.0088e+06        0.984          25.6
  40      1.3058e+01       4.0400e+06       -3.5158e+06        0.988          27.5
  41      8.4196e+00       5.0692e+06       -4.1320e+06        0.981          29.7
  42      5.2123e+00       6.4714e+06       -4.7631e+06        0.994          32.3
  43      3.0979e+00       8.1854e+06       -5.3256e+06        0.999          35.6
  44      1.7783e+00       1.0071e+07       -5.9164e+06        0.999          42.5
  45      1.0000e+00       1.2087e+07       -6.6994e+06        0.997          49.4