Folder: GlassyIonicConductorDatabase/program/database/experiments/MU/xrd/1102/parallel/1101/xrd

Note: README.md
# GlassyIonicConductorDatabase

- Contains daily experimental data of polymeric ionic conductors
  
  - Process (as flowchart), structure, measurements, and properties

- Data are processed by machine learning tools

# Requirements

- Check for env. yml

- This database is processed by "FlowMater", which can treat graph data.
  
  - Visit the following URL for the latest version.
  
  - https://github.com/KanHatakeyama/FlowMater2

# Related paper

- TBD

# History

- version 2022.1.18: initial version

# Author

- Kan Hatakeyama-Sato
- Waseda University
- [Kan Hatakeyama](https://kanhatakeyama.github.io/)
- [satokan@toki.waseda](mailto:satokan@toki.waseda).(japan)

File: 100.TXT
Sample
Comments
Filename	C:\Data\西出研\梅木\20211102オペ\LiTFSI24wt_04_0004_0099-1_C_2θ.raw
Goniometer	SmartLab(In-plane)
Attachment	標準Zステージ
Monochromater	None
X	0
Y	0
Z	0.01756
ScanningMode	2Theta
ScanningType	Continuos Scanning
X-Ray	40kV/30mA
入射スリット	0.300mm
受光スリット1	20.000mm
受光スリット2	20.000mm
None
Start	5
Stop	60
Step	0.02
Speed	21.6746
Theta	0
5	7766.72
5.2	7387.42
5.4	6990.05
5.6	6448.19
5.8	6737.18
6	6737.18
6.2	6592.68
6.4	6285.63
6.6	5599.27
6.8	6303.69
7	6050.82
7.2	6159.19
7.4	5942.45
7.6	5021.28
7.8	5563.14
8	5671.51
8.2	5563.14
8.4	5238.02
8.6	5635.39
8.8	5761.82
9	5834.07
9.2	5725.7
9.4	5888.26
9.6	5797.95
9.8	5743.76
10	5147.71
10.2	5490.89
10.4	5563.14
10.6	5797.95
10.8	7098.42
11	5689.58
11.2	5635.39
11.4	5617.33
11.6	5653.45
11.8	5816.01
12	5743.76
12.2	5996.63
12.4	6032.76
12.6	5418.64
12.8	5527.02
13	5545.08
13.2	5129.65
13.4	5563.14
13.6	5274.15
13.8	5779.89
14	5527.02
14.2	6086.94
14.4	5508.95
14.6	5617.33
14.8	5761.82
15	6303.69
15.2	5003.21
15.4	5924.38
15.6	5653.45
15.8	5310.27
16	5328.33
16.2	5436.71
16.4	5599.27
16.6	5165.77
16.8	5635.39
17	5111.59
17.2	7080.36
17.4	4894.84
17.6	4750.34
17.8	4894.84
18	4912.9
18.2	5490.89
18.4	5454.77
18.6	5093.53
18.8	5563.14
19	7857.03
19.2	6592.68
19.4	5147.71
19.6	5003.21
19.8	4371.04
20	4605.85
20.2	4696.16
20.4	4930.97
20.6	4280.73
20.8	4371.04
21	4208.48
21.2	4045.92
21.4	3991.73
21.6	4804.53
21.8	4497.47
22	4569.72
22.2	4298.79
22.4	4100.11
22.6	3973.67
22.8	4172.36
23	5418.64
23.2	4641.97
23.4	3991.73
23.6	3793.05
23.8	3630.49
24	3594.37
24.2	3612.43
24.4	3630.49
24.6	5834.07
24.8	5003.21
25	4208.48
25.2	3215.06
25.4	3160.88
25.6	3702.74
25.8	3124.75
26	2871.88
26.2	2889.94
26.4	2528.7
26.6	2709.32
26.8	2691.26
27	2673.2
27.2	2709.32
27.4	2709.32
27.6	2492.58
27.8	2438.39
28	2655.14
28.2	2492.58
28.4	2149.4
28.6	2492.58
28.8	3106.69
29	2492.58
29.2	2185.52
29.4	2041.02
29.6	2185.52
29.8	2582.89
30	2095.21
30.2	2077.15
30.4	2077.15
30.6	2330.02
30.8	2293.89
31	1697.84
31.2	1950.71
31.4	2095.21
31.6	2384.2
31.8	2293.89
32	2113.27
32.2	2004.9
32.4	2004.9
32.6	1788.15
32.8	1914.59
33	2817.69
33.2	3215.06
33.4	2077.15
33.6	2095.21
33.8	1625.59
34	2131.33
34.2	1860.4
34.4	1571.41
34.6	1806.21
34.8	1733.97
35	1571.41
35.2	1463.03
35.4	1318.54
35.6	1589.47
35.8	1661.72
36	1444.97
36.2	1733.97
36.4	1643.66
36.6	1661.72
36.8	1408.85
37	1607.53
37.2	1282.41
37.4	1643.66
37.6	1463.03
37.8	1842.34
38	2257.77
38.2	1661.72
38.4	1481.1
38.6	1553.34
38.8	1643.66
39	1282.41
39.2	1408.85
39.4	1571.41
39.6	1282.41
39.8	1390.79
40	1192.1
40.2	1101.79
40.4	1137.92
40.6	1535.28
40.8	1246.29
41	1481.1
41.2	1499.16
41.4	1228.23
41.6	1137.92
41.8	1300.47
42	1571.41
42.2	1155.98
42.4	1300.47
42.6	1426.91
42.8	1083.73
43	1390.79
43.2	975.356
43.4	1083.73
43.6	993.418
43.8	1101.79
44	1444.97
44.2	1390.79
44.4	1137.92
44.6	1192.1
44.8	1228.23
45	1174.04
45.2	1137.92
45.4	1011.48
45.6	1246.29
45.8	957.294
46	975.356
46.2	1065.67
46.4	903.107
46.6	993.418
46.8	1083.73
47	794.734
47.2	1029.54
47.4	1192.1
47.6	848.921
47.8	939.232
48	957.294
48.2	975.356
48.4	776.672
48.6	993.418
48.8	921.169
49	794.734
49.2	993.418
49.4	776.672
49.6	740.548
49.8	939.232
50	740.548
50.2	596.051
50.4	1065.67
50.6	722.486
50.8	993.418
51	776.672
51.2	848.921
51.4	812.797
51.6	740.548
51.8	577.989
52	1047.6
52.2	993.418
52.4	866.983
52.6	848.921
52.8	885.045
53	596.051
53.2	903.107
53.4	903.107
53.6	505.74
53.8	866.983
54	830.859
54.2	812.797
54.4	704.424
54.6	740.548
54.8	596.051
55	848.921
55.2	686.362
55.4	614.113
55.6	830.859
55.8	541.864
56	686.362
56.2	776.672
56.4	794.734
56.6	704.424
56.8	704.424
57	614.113
57.2	722.486
57.4	830.859
57.6	577.989
57.8	668.299
58	559.927
58.2	740.548
58.4	686.362
58.6	596.051
58.8	939.232
59	541.864
59.2	722.486
59.4	776.672
59.6	758.61
59.8	451.554
60	668.299
	234.808