Folder: GlassyIonicConductorDatabase/program/database/experiments/MU/battery/922(806)/data

Note: README.md
# GlassyIonicConductorDatabase

- Contains daily experimental data of polymeric ionic conductors
  
  - Process (as flowchart), structure, measurements, and properties

- Data are processed by machine learning tools

# Requirements

- Check for env. yml

- This database is processed by "FlowMater", which can treat graph data.
  
  - Visit the following URL for the latest version.
  
  - https://github.com/KanHatakeyama/FlowMater2

# Related paper

- TBD

# History

- version 2022.1.18: initial version

# Author

- Kan Hatakeyama-Sato
- Waseda University
- [Kan Hatakeyama](https://kanhatakeyama.github.io/)
- [satokan@toki.waseda](mailto:satokan@toki.waseda).(japan)

File: 02.txt
Sept. 23, 2021   22:41:55
Chronopotentiometry
File: c:\users\polymer\desktop\data_cv\2020_m1\umeki\210923\02c.txt
Data Source:  Experiment
Instrument Model:  CHI660C
Header:
Note:

Cathodic Current (A) = 2.36e-4
Anodic Current (A) = 2.36e-4
Init P/N = N
Data Storage Interval (s) = 0.1
High E Limit (V) = 2.5
Low E Limit (V) = 1
Cathodic Time (s) = 10
Anodic Time (s) = 10
Current Switching Polarity = Potential
Segment = 3

Time/sec, Potential/V

1.00000e-1, 1.73463e+0
3.14001e+1, 1.69267e+0
6.26996e+1, 1.64378e+0
9.39991e+1, 1.54531e+0
1.25299e+2, 1.03917e+0
1.56600e+2, 1.78776e+0
1.87902e+2, 1.82081e+0
2.19204e+2, 1.84246e+0
2.50506e+2, 1.85857e+0
2.81808e+2, 1.87093e+0
3.13110e+2, 1.88130e+0
3.44412e+2, 1.89012e+0
3.75714e+2, 1.89764e+0
4.07016e+2, 1.90394e+0
4.38318e+2, 1.90978e+0
4.69619e+2, 1.91417e+0
5.00921e+2, 1.91698e+0
5.32217e+2, 1.91796e+0
5.63509e+2, 1.91891e+0
5.94802e+2, 1.91968e+0
6.26094e+2, 1.92034e+0
6.57387e+2, 1.92090e+0
6.88679e+2, 1.92160e+0
7.19971e+2, 1.92203e+0
7.51264e+2, 1.92217e+0
7.82556e+2, 1.92247e+0
8.13848e+2, 1.92287e+0
8.45141e+2, 1.92319e+0
8.76433e+2, 1.92342e+0
9.07725e+2, 1.92374e+0
9.39018e+2, 1.92409e+0
9.70310e+2, 1.92436e+0
1.00160e+3, 1.92450e+0
1.03289e+3, 1.92462e+0
1.06419e+3, 1.92481e+0
1.09548e+3, 1.92503e+0
1.12677e+3, 1.92530e+0
1.15806e+3, 1.92570e+0
1.18936e+3, 1.92618e+0
1.22065e+3, 1.92656e+0
1.25194e+3, 1.92679e+0
1.28323e+3, 1.92689e+0
1.31453e+3, 1.92692e+0
1.34582e+3, 1.92694e+0
1.37711e+3, 1.92694e+0
1.40840e+3, 1.92694e+0
1.43970e+3, 1.92695e+0
1.47099e+3, 1.92697e+0
1.50228e+3, 1.92703e+0
1.53357e+3, 1.92713e+0
1.56486e+3, 1.92727e+0
1.59616e+3, 1.92744e+0
1.62745e+3, 1.92764e+0
1.65874e+3, 1.92785e+0
1.69003e+3, 1.92804e+0
1.72133e+3, 1.92819e+0
1.75262e+3, 1.92835e+0
1.78391e+3, 1.92863e+0
1.81520e+3, 1.92895e+0
1.84650e+3, 1.92924e+0
1.87779e+3, 1.92940e+0
1.90908e+3, 1.92958e+0
1.94037e+3, 1.92991e+0
1.97167e+3, 1.93032e+0
2.00296e+3, 1.93065e+0
2.03425e+3, 1.93116e+0
2.06556e+3, 1.93172e+0
2.09689e+3, 1.93187e+0
2.12823e+3, 1.93219e+0
2.15956e+3, 1.93272e+0
2.19089e+3, 1.93314e+0
2.22222e+3, 1.93378e+0
2.25355e+3, 1.93428e+0
2.28488e+3, 1.93476e+0
2.31621e+3, 1.93544e+0
2.34754e+3, 1.93625e+0
2.37887e+3, 1.93673e+0
2.41020e+3, 1.93725e+0
2.44153e+3, 1.93796e+0
2.47286e+3, 1.93879e+0
2.50419e+3, 1.93930e+0
2.53552e+3, 1.94009e+0
2.56685e+3, 1.94104e+0
2.59818e+3, 1.94164e+0
2.62951e+3, 1.94236e+0
2.66084e+3, 1.94310e+0
2.69218e+3, 1.94400e+0
2.72351e+3, 1.94470e+0
2.75484e+3, 1.94630e+0
2.78617e+3, 1.94649e+0
2.81750e+3, 1.94717e+0
2.84883e+3, 1.94803e+0
2.88016e+3, 1.94895e+0
2.91149e+3, 1.94979e+0
2.94282e+3, 1.95074e+0
2.97415e+3, 1.95147e+0
3.00548e+3, 1.95237e+0
3.03681e+3, 1.95336e+0
3.06814e+3, 1.95412e+0
3.09947e+3, 1.95507e+0
3.13080e+3, 1.95620e+0
3.16213e+3, 1.95692e+0
3.19346e+3, 1.95786e+0
3.22480e+3, 1.95882e+0
3.25613e+3, 1.95980e+0
3.28746e+3, 1.96096e+0
3.31879e+3, 1.96165e+0
3.35012e+3, 1.96260e+0
3.38145e+3, 1.96365e+0
3.41278e+3, 1.96468e+0
3.44411e+3, 1.96597e+0
3.47544e+3, 1.96666e+0
3.50677e+3, 1.96774e+0
3.53810e+3, 1.96875e+0
3.56943e+3, 1.96992e+0
3.60076e+3, 1.97112e+0
3.63209e+3, 1.97235e+0
3.66342e+3, 1.97367e+0
3.69475e+3, 1.97515e+0
3.72608e+3, 1.97646e+0
3.75741e+3, 1.97807e+0
3.78875e+3, 1.97942e+0
3.82008e+3, 1.98091e+0
3.85141e+3, 1.98268e+0
3.88274e+3, 1.98505e+0
3.91407e+3, 1.98593e+0
3.94540e+3, 1.98783e+0
3.97673e+3, 1.98962e+0
4.00806e+3, 1.99149e+0
4.03939e+3, 1.99343e+0
4.07072e+3, 1.99550e+0
4.10205e+3, 1.99773e+0
4.13338e+3, 2.00016e+0
4.16471e+3, 2.00250e+0
4.19604e+3, 2.00506e+0
4.22737e+3, 2.00758e+0
4.25870e+3, 2.01039e+0
4.29003e+3, 2.01358e+0
4.32136e+3, 2.01714e+0
4.35270e+3, 2.02090e+0
4.38403e+3, 2.02547e+0
4.41536e+3, 2.03091e+0
4.44669e+3, 2.03752e+0
4.47802e+3, 2.04528e+0
4.50935e+3, 2.05403e+0
4.54068e+3, 2.06396e+0
4.57201e+3, 2.07524e+0
4.60334e+3, 2.08855e+0
4.63467e+3, 2.10529e+0
4.66600e+3, 2.12632e+0
4.69733e+3, 2.15277e+0
4.72866e+3, 2.18452e+0
4.75999e+3, 2.21632e+0
4.79132e+3, 2.24770e+0
4.82265e+3, 2.27851e+0
4.85398e+3, 2.30781e+0
4.88531e+3, 2.33678e+0
4.91665e+3, 2.36395e+0
4.94798e+3, 2.39176e+0
4.97931e+3, 2.41948e+0
5.01064e+3, 2.44548e+0
5.04197e+3, 2.46881e+0
5.07330e+3, 2.48918e+0
5.10463e+3, 2.10420e+0
5.13596e+3, 1.96493e+0
5.16729e+3, 1.90741e+0
5.19862e+3, 1.87490e+0
5.22995e+3, 1.85462e+0
5.26128e+3, 1.84057e+0
5.29261e+3, 1.83057e+0
5.32394e+3, 1.82334e+0
5.35527e+3, 1.81817e+0
5.38660e+3, 1.81462e+0
5.41793e+3, 1.81208e+0
5.44927e+3, 1.81022e+0
5.48060e+3, 1.80941e+0
5.51193e+3, 1.80818e+0
5.54326e+3, 1.80747e+0
5.57459e+3, 1.80695e+0
5.60592e+3, 1.80633e+0
5.63725e+3, 1.80595e+0
5.66858e+3, 1.80550e+0
5.69991e+3, 1.80509e+0
5.73124e+3, 1.80489e+0
5.76257e+3, 1.80463e+0
5.79390e+3, 1.80414e+0
5.82523e+3, 1.80374e+0
5.85656e+3, 1.80348e+0
5.88789e+3, 1.80313e+0
5.91922e+3, 1.80281e+0
5.95055e+3, 1.80256e+0
5.98188e+3, 1.80238e+0
6.01322e+3, 1.80211e+0
6.04455e+3, 1.80173e+0
6.07588e+3, 1.80142e+0
6.10721e+3, 1.80120e+0
6.13854e+3, 1.80098e+0
6.16987e+3, 1.80069e+0
6.20120e+3, 1.80043e+0
6.23253e+3, 1.80019e+0
6.26386e+3, 1.80005e+0
6.29519e+3, 1.79995e+0
6.32652e+3, 1.79976e+0
6.35785e+3, 1.79939e+0
6.38918e+3, 1.79905e+0
6.42051e+3, 1.79882e+0
6.45184e+3, 1.79862e+0
6.48317e+3, 1.79838e+0
6.51450e+3, 1.79812e+0
6.54583e+3, 1.79786e+0
6.57717e+3, 1.79767e+0
6.60850e+3, 1.79752e+0
6.63983e+3, 1.79728e+0
6.67116e+3, 1.79691e+0
6.70249e+3, 1.79654e+0
6.73382e+3, 1.79628e+0
6.76515e+3, 1.79595e+0
6.79648e+3, 1.79556e+0
6.82781e+3, 1.79523e+0
6.85914e+3, 1.79506e+0
6.89047e+3, 1.79459e+0
6.92180e+3, 1.79403e+0
6.95313e+3, 1.79363e+0
6.98446e+3, 1.79309e+0
7.01579e+3, 1.79271e+0
7.04712e+3, 1.79229e+0
7.07845e+3, 1.79163e+0
7.10979e+3, 1.79114e+0
7.14112e+3, 1.79055e+0
7.17245e+3, 1.79025e+0
7.20378e+3, 1.79016e+0
7.23511e+3, 1.78911e+0
7.26644e+3, 1.78819e+0
7.29777e+3, 1.78772e+0
7.32910e+3, 1.78701e+0
7.36043e+3, 1.78641e+0
7.39176e+3, 1.78567e+0
7.42309e+3, 1.78522e+0
7.45442e+3, 1.78422e+0
7.48575e+3, 1.78339e+0
7.51708e+3, 1.78277e+0
7.54841e+3, 1.78183e+0
7.57974e+3, 1.78100e+0
7.61107e+3, 1.78042e+0
7.64240e+3, 1.77935e+0
7.67374e+3, 1.77841e+0
7.70507e+3, 1.77767e+0
7.73640e+3, 1.77672e+0
7.76773e+3, 1.77576e+0
7.79906e+3, 1.77495e+0
7.83039e+3, 1.77384e+0
7.86172e+3, 1.77296e+0
7.89305e+3, 1.77185e+0
7.92438e+3, 1.77078e+0
7.95571e+3, 1.76975e+0
7.98704e+3, 1.76865e+0
8.01837e+3, 1.76764e+0
8.04970e+3, 1.76648e+0
8.08103e+3, 1.76564e+0
8.11236e+3, 1.76434e+0
8.14369e+3, 1.76327e+0
8.17502e+3, 1.76200e+0
8.20629e+3, 1.76091e+0
8.23746e+3, 1.75949e+0
8.26864e+3, 1.75825e+0
8.29982e+3, 1.75670e+0
8.33100e+3, 1.75528e+0
8.36217e+3, 1.75371e+0
8.39335e+3, 1.75216e+0
8.42453e+3, 1.75115e+0
8.45571e+3, 1.74878e+0
8.48688e+3, 1.74700e+0
8.51806e+3, 1.74506e+0
8.54924e+3, 1.74300e+0
8.58042e+3, 1.74099e+0
8.61160e+3, 1.73848e+0
8.64277e+3, 1.73610e+0
8.67395e+3, 1.73305e+0
8.70513e+3, 1.73010e+0
8.73631e+3, 1.72680e+0
8.76748e+3, 1.72309e+0
8.79866e+3, 1.71921e+0
8.82984e+3, 1.71471e+0
8.86102e+3, 1.70993e+0
8.89220e+3, 1.70476e+0
8.92337e+3, 1.69878e+0
8.95455e+3, 1.69258e+0
8.98573e+3, 1.68493e+0
9.01691e+3, 1.67645e+0
9.04808e+3, 1.66688e+0
9.07926e+3, 1.65570e+0
9.11044e+3, 1.64224e+0
9.14162e+3, 1.62641e+0
9.17279e+3, 1.60711e+0
9.20397e+3, 1.58322e+0
9.23515e+3, 1.55312e+0
9.26633e+3, 1.51091e+0
9.29751e+3, 1.43997e+0
9.32868e+3, 1.31203e+0
9.35986e+3, 1.13194e+0
9.37839e+3, 1.00064e+0