Folder: GlassyIonicConductorDatabase/database/experiments/MU/xrd/1102/parallel/liftfsi/xrd

Note: README.md
# GlassyIonicConductorDatabase

- Contains daily experimental data of polymeric ionic conductors
  
  - Process (as flowchart), structure, measurements, and properties

- Data are processed by machine learning tools

# Requirements

- Check for env. yml

- This database is processed by "FlowMater", which can treat graph data.
  
  - Visit the following URL for the latest version.
  
  - https://github.com/KanHatakeyama/FlowMater2

# Related paper

- TBD

# History

- version 2022.1.18: initial version

# Author

- Kan Hatakeyama-Sato
- Waseda University
- [Kan Hatakeyama](https://kanhatakeyama.github.io/)
- [satokan@toki.waseda](mailto:satokan@toki.waseda).(japan)

File: 25.TXT
Sample
Comments
Filename	C:\Data\西出研\梅木\20211102オペ\LiFTFSI_01_0001_0029-1_C_2θ.raw
Goniometer	SmartLab(In-plane)
Attachment	標準Zステージ
Monochromater	None
X	0
Y	0
Z	0.00908
ScanningMode	2Theta
ScanningType	Continuos Scanning
X-Ray	40kV/30mA
入射スリット	0.300mm
受光スリット1	20.000mm
受光スリット2	20.000mm
None
Start	5
Stop	60
Step	0.02
Speed	21.6746
Theta	0
5	3883.36
5.2	3251.19
5.4	3413.75
5.6	3233.12
5.8	3594.37
6	3377.62
6.2	3287.31
6.4	3016.38
6.6	3720.8
6.8	3630.49
7	2926.07
7.2	3341.5
7.4	2998.32
7.6	3540.18
7.8	3088.63
8	2980.25
8.2	2980.25
8.4	2745.45
8.6	3558.24
8.8	2871.88
9	3197
9.2	2944.13
9.4	2926.07
9.6	2962.19
9.8	2817.69
10	3142.81
10.2	2257.77
10.4	2600.95
10.6	2962.19
10.8	3160.88
11	2438.39
11.2	2889.94
11.4	2853.82
11.6	2745.45
11.8	2871.88
12	2619.01
12.2	2799.63
12.4	3016.38
12.6	3485.99
12.8	2221.64
13	2781.57
13.2	2528.7
13.4	2311.95
13.6	2655.14
13.8	2402.27
14	2366.14
14.2	2384.2
14.4	2348.08
14.6	2474.51
14.8	2095.21
15	2564.82
15.2	2384.2
15.4	2691.26
15.6	2384.2
15.8	1860.4
16	2149.4
16.2	3070.56
16.4	2203.58
16.6	2420.33
16.8	2293.89
17	1986.84
17.2	1968.77
17.4	2059.08
17.6	2113.27
17.8	2185.52
18	5996.63
18.2	2221.64
18.4	1950.71
18.6	4967.09
18.8	2185.52
19	2004.9
19.2	2908.01
19.4	3883.36
19.6	2167.46
19.8	1733.97
20	1860.4
20.2	2528.7
20.4	1914.59
20.6	1752.03
20.8	1824.28
21	2926.07
21.2	4063.98
21.4	1697.84
21.6	1643.66
21.8	2257.77
22	2004.9
22.2	2095.21
22.4	1715.9
22.6	1715.9
22.8	1842.34
23	1661.72
23.2	1770.09
23.4	2113.27
23.6	1155.98
23.8	1679.78
24	1444.97
24.2	1589.47
24.4	1318.54
24.6	1264.35
24.8	1246.29
25	1264.35
25.2	1426.91
25.4	2185.52
25.6	1986.84
25.8	6177.25
26	1264.35
26.2	1390.79
26.4	3178.94
26.6	1463.03
26.8	1336.6
27	1390.79
27.2	1210.16
27.4	1300.47
27.6	6791.37
27.8	1192.1
28	1174.04
28.2	1210.16
28.4	993.418
28.6	939.232
28.8	1065.67
29	1029.54
29.2	885.045
29.4	957.294
29.6	848.921
29.8	939.232
30	957.294
30.2	1192.1
30.4	848.921
30.6	1300.47
30.8	704.424
31	1065.67
31.2	848.921
31.4	885.045
31.6	1047.6
31.8	794.734
32	903.107
32.2	776.672
32.4	722.486
32.6	1083.73
32.8	686.362
33	2004.9
33.2	1264.35
33.4	921.169
33.6	866.983
33.8	776.672
34	1101.79
34.2	776.672
34.4	722.486
34.6	596.051
34.8	722.486
35	541.864
35.2	903.107
35.4	668.299
35.6	577.989
35.8	415.429
36	596.051
36.2	758.61
36.4	722.486
36.6	523.802
36.8	939.232
37	957.294
37.2	939.232
37.4	1174.04
37.6	614.113
37.8	632.175
38	975.356
38.2	668.299
38.4	1011.48
38.6	559.927
38.8	596.051
39	577.989
39.2	1083.73
39.4	1878.46
39.6	686.362
39.8	559.927
40	577.989
40.2	596.051
40.4	469.616
40.6	361.243
40.8	632.175
41	487.678
41.2	614.113
41.4	415.429
41.6	632.175
41.8	1408.85
42	541.864
42.2	469.616
42.4	415.429
42.6	541.864
42.8	325.119
43	921.169
43.2	632.175
43.4	686.362
43.6	433.492
43.8	433.492
44	415.429
44.2	614.113
44.4	469.616
44.6	523.802
44.8	559.927
45	397.367
45.2	379.305
45.4	397.367
45.6	469.616
45.8	379.305
46	487.678
46.2	379.305
46.4	325.119
46.6	559.927
46.8	325.119
47	325.119
47.2	379.305
47.4	469.616
47.6	469.616
47.8	577.989
48	614.113
48.2	397.367
48.4	433.492
48.6	397.367
48.8	433.492
49	433.492
49.2	325.119
49.4	397.367
49.6	379.305
49.8	361.243
50	487.678
50.2	397.367
50.4	252.87
50.6	433.492
50.8	270.932
51	361.243
51.2	469.616
51.4	216.746
51.6	379.305
51.8	270.932
52	541.864
52.2	433.492
52.4	433.492
52.6	198.684
52.8	270.932
53	469.616
53.2	487.678
53.4	198.684
53.6	487.678
53.8	415.429
54	216.746
54.2	252.87
54.4	343.181
54.6	361.243
54.8	1047.6
55	397.367
55.2	307.056
55.4	234.808
55.6	469.616
55.8	162.559
56	343.181
56.2	415.429
56.4	343.181
56.6	415.429
56.8	307.056
57	415.429
57.2	270.932
57.4	216.746
57.6	252.87
57.8	361.243
58	288.994
58.2	252.87
58.4	288.994
58.6	415.429
58.8	325.119
59	270.932
59.2	343.181
59.4	343.181
59.6	270.932
59.8	451.554
60	270.932