Folder: GlassyIonicConductorDatabase/program/database/experiments/MU/xrd/903_ppo_chloranil_liftfsi_for_xrd_50

Note: README.md
# GlassyIonicConductorDatabase

- Contains daily experimental data of polymeric ionic conductors
  
  - Process (as flowchart), structure, measurements, and properties

- Data are processed by machine learning tools

# Requirements

- Check for env. yml

- This database is processed by "FlowMater", which can treat graph data.
  
  - Visit the following URL for the latest version.
  
  - https://github.com/KanHatakeyama/FlowMater2

# Related paper

- TBD

# History

- version 2022.1.18: initial version

# Author

- Kan Hatakeyama-Sato
- Waseda University
- [Kan Hatakeyama](https://kanhatakeyama.github.io/)
- [satokan@toki.waseda](mailto:satokan@toki.waseda).(japan)

File: xrd.csv
x,y
10,23768.2
10.27,24444.3
10.54,26281.9
10.81,37932
11.08,23802.8
11.35,24461.6
11.62,24808.3
11.89,24114.9
12.16,23490.8
12.43,24583
12.7,25363.1
12.97,24357.6
13.24,24635
13.51,23612.1
13.78,24218.9
14.05,25016.4
14.32,25137.7
14.59,23404.1
14.86,23716.2
15.13,23906.9
15.4,24531
15.67,23785.5
15.94,22814.7
16.21,23958.9
16.48,22173.2
16.75,23976.2
17.02,33043.1
17.29,29974.6
17.56,21393.1
17.83,21497.1
18.1,24132.2
18.37,38261.4
18.64,22363.9
18.91,32263
19.18,77320.2
19.45,27894.2
19.72,20231.5
19.99,20023.5
20.26,20439.6
20.53,19451.4
20.8,20248.9
21.07,18653.9
21.34,19711.5
21.61,21635.8
21.88,17908.5
22.15,18601.9
22.42,17665.8
22.69,17631.1
22.96,22519.9
23.23,26559.3
23.5,17977.8
23.77,17163
24.04,17527.1
24.31,18445.9
24.58,38070.7
24.85,38642.8
25.12,18567.3
25.39,15949.5
25.66,15152
25.93,15412
26.2,14181.2
26.47,14909.3
26.74,14458.5
27.01,13782.4
27.28,12794.2
27.55,14267.8
27.82,13175.6
28.09,12724.9
28.36,12499.5
28.63,14545.2
28.9,29333.1
29.17,13037
29.44,12135.5
29.71,11927.4
29.98,11476.7
30.25,11684.7
30.52,10436.5
30.79,11598
31.06,11182
31.33,11268.6
31.6,11875.4
31.87,13886.4
32.14,14649.2
32.41,10904.6
32.68,11962.1
32.95,13141
33.22,22728
33.49,22572
33.76,11112.6
34.03,11476.7
34.3,12170.1
34.57,10609.9
34.84,14319.8
35.11,9795.05
35.38,8997.58
35.65,9396.31
35.92,10505.8
36.19,11390
36.46,13990.5
36.73,9361.64
37,10731.2
37.27,11494
37.54,9084.26
37.81,9587.01
38.08,21757.1
38.35,17527.1
38.62,9881.73
38.89,10211.1
39.16,9049.58
39.43,9170.94
39.7,8650.85
39.97,9136.27
40.24,8980.24
40.51,8009.4
40.78,10003.1
41.05,11424.7
41.32,8373.47
41.59,8858.89
41.86,8650.85
42.13,8148.09
42.4,10367.1
42.67,8893.56
42.94,8789.54
43.21,8598.84
43.48,8200.1
43.75,7732.02
44.02,10627.2
44.29,10332.5
44.56,11234
44.83,7645.34
45.1,8720.19
45.37,7454.64
45.64,6726.51
45.91,7489.31
46.18,7402.63
46.45,7419.97
46.72,8182.77
46.99,8876.22
47.26,8252.11
47.53,7489.31
47.8,7038.57
48.07,6969.22
48.34,9118.93
48.61,7315.95
48.88,6431.79
49.15,7888.05
49.42,8442.81
49.69,7194.59
49.96,8078.75
50.23,6657.17
50.5,6414.46
50.77,7315.95
51.04,7194.59
51.31,8910.89
51.58,6518.48
51.85,5721
52.12,5946.38
52.39,6743.85
52.66,5443.62
52.93,5512.97
53.2,4836.85
53.47,5755.67
53.74,5391.61
54.01,6327.78
54.28,6483.8
54.55,4871.52
54.82,4559.47
55.09,4403.44
55.36,5460.96
55.63,4646.15
55.9,4698.16
56.17,4126.06
56.44,5963.71
56.71,4819.51
56.98,4368.77
57.25,4074.05
57.52,4455.45
57.79,4282.08
58.06,3779.33
58.33,4386.1
58.6,4334.09
58.87,4108.72
59.14,4160.73
59.41,3744.66
59.68,4680.82
59.95,5963.71
60.22,4646.15
60.49,3866.01
60.76,4178.07
61.03,3779.33
61.3,4819.51
61.57,4108.72
61.84,3935.36
62.11,3675.31
62.38,3709.98
62.65,3536.62
62.92,3588.63
63.19,3761.99
63.46,3519.28
63.73,3328.58
64,4282.08
64.27,3883.35
64.54,3935.36
64.81,4524.79
65.08,3918.02
65.35,4108.72
65.62,4299.42
65.89,4282.08
66.16,3883.35
66.43,3328.58
66.7,3744.66
66.97,4230.07
67.24,3449.94
67.51,3657.97
67.78,3727.32
68.05,3085.87
68.32,3033.86
68.59,3501.95
68.86,3467.27
69.13,3623.3
69.4,3380.59
69.67,2773.82
69.94,2964.52
70.21,3085.87
70.48,3120.55
70.75,3484.61
71.02,3189.89
71.29,3172.56
71.56,3155.22
71.83,3311.25
72.1,3484.61
72.37,3519.28
72.64,3536.62
72.91,3796.67
73.18,3519.28
73.45,2739.15
73.72,3727.32
73.99,3501.95
74.26,4316.76
74.53,3692.65
74.8,4126.06
75.07,4143.39
75.34,3779.33
75.61,4334.09
75.88,5755.67
76.15,5981.05
76.42,5686.33
76.69,4542.13
76.96,4628.81
77.23,4143.39
77.5,3571.29
77.77,4334.09
78.04,3883.35
78.31,4074.05
78.58,4715.49
78.85,4386.1
79.12,4126.06
79.39,3675.31
79.66,4490.12
79.93,4160.73
80.2,4108.72
80.47,3605.97
80.74,3657.97
81.01,3224.56
81.28,3918.02
81.55,4143.39
81.82,4091.38
82.09,4022.04
82.36,3397.93
82.63,4004.7
82.9,3727.32
83.17,3519.28
83.44,3692.65
83.71,3605.97
83.98,3224.56
84.25,3640.64
84.52,4022.04
84.79,3536.62
85.06,3103.21
85.33,3484.61
85.6,3345.92
85.87,3553.96
86.14,3120.55
86.41,2843.16
86.68,3172.56
86.95,2895.17
87.22,3363.26
87.49,3293.91
87.76,3085.87
88.03,3259.24
88.3,3363.26
88.57,3051.2
88.84,3397.93
89.11,2877.84
89.38,3311.25
89.65,3536.62
89.92,13418.4
90,7541.32