Folder: GlassyIonicConductorDatabase/program/database/experiments/MU/xrd/903_ppo_chloranil_liftfsi_for_xrd_100

Note: README.md
# GlassyIonicConductorDatabase

- Contains daily experimental data of polymeric ionic conductors
  
  - Process (as flowchart), structure, measurements, and properties

- Data are processed by machine learning tools

# Requirements

- Check for env. yml

- This database is processed by "FlowMater", which can treat graph data.
  
  - Visit the following URL for the latest version.
  
  - https://github.com/KanHatakeyama/FlowMater2

# Related paper

- TBD

# History

- version 2022.1.18: initial version

# Author

- Kan Hatakeyama-Sato
- Waseda University
- [Kan Hatakeyama](https://kanhatakeyama.github.io/)
- [satokan@toki.waseda](mailto:satokan@toki.waseda).(japan)

File: xrd.csv
x,y
10,20612.9
10.27,22433.3
10.54,24513.6
10.81,41347.2
11.08,20404.9
11.35,19902.2
11.62,20456.9
11.89,19694.1
12.16,19711.5
12.43,18966
12.7,19780.8
12.97,20630.3
13.24,19572.8
13.51,18758
13.78,19676.8
14.05,19087.3
14.32,18445.9
14.59,18341.9
14.86,17648.4
15.13,18133.8
15.4,17873.8
15.67,17492.4
15.94,17717.8
16.21,16937.6
16.48,17700.4
16.75,18376.6
17.02,30945.4
17.29,34690.1
17.56,16781.6
17.83,16538.9
18.1,18844.6
18.37,48507.2
18.64,15932.1
18.91,28310.3
19.18,136784
19.45,24132.2
19.72,14735.9
19.99,14614.6
20.26,13609.1
20.53,13938.4
20.8,13782.4
21.07,13435.7
21.34,16174.8
21.61,15498.7
21.88,13557
22.15,11962.1
22.42,13141
22.69,12482.2
22.96,16868.3
23.23,32367
23.5,12031.4
23.77,12672.9
24.04,12308.8
24.31,12014.1
24.58,36597.1
24.85,37359.9
25.12,14059.8
25.39,12672.9
25.66,11650
25.93,10540.5
26.2,11303.3
26.47,10193.8
26.74,10193.8
27.01,10245.8
27.28,10731.2
27.55,9951.08
27.82,10107.1
28.09,9326.97
28.36,10384.5
28.63,10679.2
28.9,42647.5
29.17,9951.08
29.44,9604.35
29.71,9049.58
29.98,9777.71
30.25,9430.99
30.52,8616.18
30.79,9101.59
31.06,8581.5
31.33,9136.27
31.6,9084.26
31.87,10765.9
32.14,14649.2
32.41,8321.46
32.68,8824.21
32.95,11875.4
33.22,16851
33.49,35851.6
33.76,8980.24
34.03,9795.05
34.3,13435.7
34.57,8876.22
34.84,17596.4
35.11,8338.79
35.38,8304.12
35.65,8356.13
35.92,8356.13
36.19,9708.37
36.46,16712.3
36.73,7610.67
37,8477.49
37.27,15048
37.54,8286.79
37.81,8720.19
38.08,20630.3
38.35,18966
38.62,9847.06
38.89,10921.9
39.16,7246.6
39.43,7090.58
39.7,7593.33
39.97,7350.62
40.24,6934.55
40.51,7038.57
40.78,7888.05
41.05,13418.4
41.32,7593.33
41.59,7454.64
41.86,7263.94
42.13,7038.57
42.4,9829.72
42.67,7298.61
42.94,8702.86
43.21,8044.08
43.48,6535.81
43.75,6969.22
44.02,13366.3
44.29,8113.42
44.56,13730.4
44.83,6015.72
45.1,9222.95
45.37,6033.06
45.64,6258.43
45.91,6137.08
46.18,6189.08
46.45,6674.5
46.72,6795.86
46.99,9760.38
47.26,7454.64
47.53,7385.29
47.8,5825.02
48.07,6258.43
48.34,9985.75
48.61,8044.08
48.88,5252.92
49.15,6119.74
49.42,7021.23
49.69,6293.1
49.96,8598.84
50.23,6067.73
50.5,6847.87
50.77,6483.8
51.04,5842.36
51.31,8217.44
51.58,6605.16
51.85,5096.89
52.12,5027.55
52.39,6466.47
52.66,4351.43
52.93,4854.18
53.2,4628.81
53.47,5755.67
53.74,4542.13
54.01,4940.87
54.28,7940.06
54.55,4594.14
54.82,4230.07
55.09,3970.03
55.36,5235.58
55.63,3935.36
55.9,4940.87
56.17,3536.62
56.44,6934.55
56.71,4004.7
56.98,4212.74
57.25,3519.28
57.52,5148.9
57.79,4108.72
58.06,3467.27
58.33,3137.88
58.6,3866.01
58.87,3900.68
59.14,3571.29
59.41,3501.95
59.68,3831.34
59.95,6813.19
60.22,3588.63
60.49,2999.19
60.76,3328.58
61.03,3120.55
61.3,5530.3
61.57,3866.01
61.84,3172.56
62.11,3155.22
62.38,4247.41
62.65,3605.97
62.92,2756.48
63.19,3085.87
63.46,3276.57
63.73,3172.56
64,3883.35
64.27,3761.99
64.54,3727.32
64.81,5235.58
65.08,3779.33
65.35,4004.7
65.62,4646.15
65.89,4230.07
66.16,4698.16
66.43,3241.9
66.7,3155.22
66.97,4195.4
67.24,3415.26
67.51,2773.82
67.78,3155.22
68.05,2808.49
68.32,2895.17
68.59,2825.83
68.86,4559.47
69.13,3276.57
69.4,2981.86
69.67,2947.18
69.94,2479.1
70.21,2669.8
70.48,2617.79
70.75,2825.83
71.02,2635.13
71.29,2548.45
71.56,2895.17
71.83,2565.78
72.1,3432.6
72.37,3605.97
72.64,3952.69
72.91,4022.04
73.18,2756.48
73.45,2860.5
73.72,3137.88
73.99,2964.52
74.26,5166.24
74.53,3224.56
74.8,3883.35
75.07,3484.61
75.34,3553.96
75.61,3657.97
75.88,5322.27
76.15,6691.84
76.42,6362.45
76.69,5010.21
76.96,3779.33
77.23,3432.6
77.5,3675.31
77.77,3449.94
78.04,3051.2
78.31,3363.26
78.58,3519.28
78.85,4611.47
79.12,3900.68
79.39,3293.91
79.66,5235.58
79.93,4368.77
80.2,3276.57
80.47,3155.22
80.74,2912.51
81.01,3120.55
81.28,3397.93
81.55,3987.37
81.82,3952.69
82.09,5114.23
82.36,3848.67
82.63,3623.3
82.9,3571.29
83.17,3328.58
83.44,3224.56
83.71,3207.23
83.98,3241.9
84.25,2947.18
84.52,3709.98
84.79,2808.49
85.06,3051.2
85.33,2513.77
85.6,2669.8
85.87,3519.28
86.14,2860.5
86.41,2687.14
86.68,2427.09
86.95,2704.47
87.22,3085.87
87.49,2479.1
87.76,2669.8
88.03,3085.87
88.3,2531.11
88.57,2271.06
88.84,2704.47
89.11,2843.16
89.38,2843.16
89.65,2132.37
89.92,2652.46
90,2947.18