Folder: GlassyIonicConductorDatabase/program/database/experiments/MU/normal/1201_ppo_bq_liftfsi/80/eis_data

Note: README.md
# GlassyIonicConductorDatabase

- Contains daily experimental data of polymeric ionic conductors
  
  - Process (as flowchart), structure, measurements, and properties

- Data are processed by machine learning tools

# Requirements

- Check for env. yml

- This database is processed by "FlowMater", which can treat graph data.
  
  - Visit the following URL for the latest version.
  
  - https://github.com/KanHatakeyama/FlowMater2

# Related paper

- TBD

# History

- version 2022.1.18: initial version

# Author

- Kan Hatakeyama-Sato
- Waseda University
- [Kan Hatakeyama](https://kanhatakeyama.github.io/)
- [satokan@toki.waseda](mailto:satokan@toki.waseda).(japan)

File: 1.txt
File.......:  cell1ppobqliftfsi30wt - DEC,02.2021

System.....:
Potential..:  0.018V
Current....:  -117.73nA
Temperature:  -0.8 +-0.1 C
Time.......:  16:20:03 - 16:20:50
Comment....:

              Main
time.......:  13080 s
Impedance samples

Lines:   45
Columns: 5

Number   Frequency/Hz   impedance R/Ohm   impedance I/Ohm   Significance   Time/s
   1      1.0000e+06       2.0504e+02       -8.7733e+01        0.999           0.0
   2      7.5549e+05       2.2024e+02       -7.8112e+01        0.999           1.0
   3      5.7077e+05       2.3364e+02       -6.8791e+01        0.999           1.5
   4      4.3121e+05       2.4428e+02       -6.0182e+01        1.000           2.3
   5      3.2578e+05       2.5212e+02       -5.3009e+01        1.000           3.0
   6      2.4612e+05       2.5860e+02       -4.7128e+01        1.000           3.4
   7      1.8594e+05       2.6382e+02       -4.2432e+01        1.000           3.8
   8      1.4048e+05       2.6875e+02       -3.9217e+01        1.000           4.3
   9      1.0613e+05       2.7433e+02       -3.7252e+01        1.000           4.8
  10      8.0180e+04       2.7829e+02       -3.6475e+01        1.000           5.2
  11      6.0575e+04       2.8180e+02       -3.7514e+01        1.000           5.7
  12      4.5764e+04       2.8615e+02       -3.9488e+01        1.000           6.1
  13      3.4574e+04       2.9109e+02       -4.2990e+01        1.000           6.6
  14      2.6121e+04       2.9636e+02       -4.7418e+01        1.000           7.0
  15      1.9734e+04       3.0251e+02       -5.3470e+01        1.000           7.5
  16      1.4909e+04       3.0976e+02       -6.1208e+01        1.000           7.9
  17      1.1263e+04       3.1794e+02       -7.0600e+01        1.000           8.4
  18      8.5095e+03       3.2712e+02       -8.2053e+01        1.000           8.8
  19      6.4288e+03       3.3797e+02       -9.5997e+01        1.000           9.3
  20      4.8569e+03       3.5057e+02       -1.1259e+02        1.000           9.8
  21      3.6694e+03       3.6526e+02       -1.3197e+02        1.000          10.2
  22      2.7722e+03       3.8241e+02       -1.5596e+02        1.000          10.6
  23      2.0944e+03       4.0184e+02       -1.8483e+02        0.999          11.1
  24      1.5823e+03       4.2491e+02       -2.1962e+02        1.000          11.6
  25      1.1954e+03       4.5235e+02       -2.6194e+02        0.999          12.0
  26      9.0311e+02       4.8540e+02       -3.1275e+02        1.000          12.5
  27      6.8229e+02       5.2491e+02       -3.7404e+02        0.999          12.9
  28      5.1546e+02       5.6912e+02       -4.4427e+02        1.000          13.7
  29      3.8943e+02       6.2867e+02       -5.3096e+02        0.999          14.4
  30      2.9421e+02       7.0089e+02       -6.3374e+02        1.000          14.8
  31      2.2227e+02       7.9126e+02       -7.5388e+02        0.999          15.3
  32      1.6793e+02       9.0072e+02       -8.9402e+02        0.999          15.7
  33      1.2687e+02       1.0347e+03       -1.0553e+03        0.999          16.2
  34      9.5846e+01       1.1980e+03       -1.2395e+03        0.999          16.7
  35      7.2411e+01       1.3953e+03       -1.4454e+03        0.999          17.3
  36      5.4092e+01       1.6381e+03       -1.6860e+03        0.999          18.7
  37      3.9533e+01       1.9544e+03       -1.9707e+03        0.999          20.5
  38      2.8174e+01       2.3627e+03       -2.3105e+03        0.999          21.9
  39      1.9503e+01       2.8900e+03       -2.7131e+03        0.999          23.5
  40      1.3058e+01       3.5699e+03       -3.1962e+03        0.998          25.3
  41      8.4196e+00       4.4472e+03       -3.7856e+03        0.998          27.5
  42      5.2123e+00       5.5771e+03       -4.5181e+03        0.998          30.7
  43      3.0979e+00       7.0396e+03       -5.4536e+03        0.997          34.5
  44      1.7783e+00       8.9495e+03       -6.6698e+03        0.997          39.5
  45      1.0000e+00       1.1326e+04       -8.1929e+03        0.995          44.1

File: 2.txt
File.......:  cell2ppobqliftfsi30w - DEC,02.2021

System.....:
Potential..:  0.110V
Current....:  -35.282nA
Temperature:  -0.8 +-0.0 C
Time.......:  16:22:24 - 16:23:10
Comment....:

              Main
time.......:  13080 s
Impedance samples

Lines:   45
Columns: 5

Number   Frequency/Hz   impedance R/Ohm   impedance I/Ohm   Significance   Time/s
   1      1.0000e+06       3.5852e+02       -2.5335e+02        0.999           0.0
   2      7.5549e+05       4.1697e+02       -2.3374e+02        0.999           1.3
   3      5.7077e+05       4.6718e+02       -2.1508e+02        0.999           1.8
   4      4.3121e+05       5.0506e+02       -1.8368e+02        1.000           2.5
   5      3.2578e+05       5.3685e+02       -1.5865e+02        1.000           3.2
   6      2.4612e+05       5.6124e+02       -1.3629e+02        1.000           3.7
   7      1.8594e+05       5.8045e+02       -1.1655e+02        1.000           4.1
   8      1.4048e+05       5.9862e+02       -1.0035e+02        1.000           4.6
   9      1.0613e+05       6.1018e+02       -8.7091e+01        1.000           5.0
  10      8.0180e+04       6.2398e+02       -7.6985e+01        1.000           5.5
  11      6.0575e+04       6.3103e+02       -7.2187e+01        1.000           5.9
  12      4.5764e+04       6.4063e+02       -6.8732e+01        1.000           6.3
  13      3.4574e+04       6.5249e+02       -6.8957e+01        1.000           6.8
  14      2.6121e+04       6.5305e+02       -6.8759e+01        1.000           7.5
  15      1.9734e+04       6.6185e+02       -7.3814e+01        1.000           8.2
  16      1.4909e+04       6.6818e+02       -8.1366e+01        1.000           8.6
  17      1.1263e+04       6.7914e+02       -9.2487e+01        1.000           9.1
  18      8.5095e+03       6.8649e+02       -1.0696e+02        1.000           9.5
  19      6.4288e+03       6.9868e+02       -1.2576e+02        1.000          10.0
  20      4.8569e+03       7.1175e+02       -1.4886e+02        1.000          10.5
  21      3.6694e+03       7.2854e+02       -1.7662e+02        1.000          10.9
  22      2.7722e+03       7.4826e+02       -2.1216e+02        1.000          11.4
  23      2.0944e+03       7.7012e+02       -2.5549e+02        0.999          11.8
  24      1.5823e+03       7.9995e+02       -3.0845e+02        0.999          12.3
  25      1.1954e+03       8.3632e+02       -3.7379e+02        1.000          12.8
  26      9.0311e+02       8.7647e+02       -4.5367e+02        0.999          13.2
  27      6.8229e+02       9.2468e+02       -5.5219e+02        1.000          13.7
  28      5.1546e+02       9.7835e+02       -6.7375e+02        0.999          14.1
  29      3.8943e+02       1.0453e+03       -8.2353e+02        1.000          14.6
  30      2.9421e+02       1.1282e+03       -1.0094e+03        0.999          15.1
  31      2.2227e+02       1.2307e+03       -1.2389e+03        0.999          15.5
  32      1.6793e+02       1.3534e+03       -1.5240e+03        0.999          16.0
  33      1.2687e+02       1.5051e+03       -1.8769e+03        0.999          16.4
  34      9.5846e+01       1.6997e+03       -2.3141e+03        0.999          17.0
  35      7.2411e+01       1.9393e+03       -2.8527e+03        0.999          17.5
  36      5.4092e+01       2.2412e+03       -3.5465e+03        0.999          18.9
  37      3.9533e+01       2.6617e+03       -4.4787e+03        0.998          20.7
  38      2.8174e+01       3.2559e+03       -5.7569e+03        0.998          22.1
  39      1.9503e+01       4.1180e+03       -7.5286e+03        0.998          24.1
  40      1.3058e+01       5.4235e+03       -1.0053e+04        0.998          26.4
  41      8.4196e+00       7.4442e+03       -1.3695e+04        0.997          28.6
  42      5.2123e+00       1.0670e+04       -1.9015e+04        0.997          31.3
  43      3.0979e+00       1.5851e+04       -2.6720e+04        0.996          34.7
  44      1.7783e+00       2.4098e+04       -3.7811e+04        0.996          39.7
  45      1.0000e+00       3.6509e+04       -5.3030e+04        0.993          44.4

File: 3.txt
File.......:  cell3ppobqliftfsi30w - DEC,02.2021

System.....:
Potential..:  0.010V
Current....:  -9.7933nA
Temperature:  -0.8 +-0.1 C
Time.......:  16:24:04 - 16:24:51
Comment....:

              Main
time.......:  13080 s
Impedance samples

Lines:   45
Columns: 5

Number   Frequency/Hz   impedance R/Ohm   impedance I/Ohm   Significance   Time/s
   1      1.0000e+06       3.8924e+02       -3.0339e+02        0.999           0.0
   2      7.5549e+05       4.6054e+02       -2.7877e+02        0.999           1.3
   3      5.7077e+05       5.1806e+02       -2.5830e+02        0.998           1.8
   4      4.3121e+05       5.6060e+02       -2.1901e+02        1.000           2.5
   5      3.2578e+05       5.9468e+02       -1.8876e+02        1.000           3.2
   6      2.4612e+05       6.2082e+02       -1.6120e+02        1.000           3.7
   7      1.8594e+05       6.4066e+02       -1.3842e+02        1.000           4.1
   8      1.4048e+05       6.5774e+02       -1.2012e+02        1.000           4.6
   9      1.0613e+05       6.6497e+02       -1.0436e+02        1.000           5.3
  10      8.0180e+04       6.7552e+02       -9.5790e+01        1.000           5.9
  11      6.0575e+04       6.8493e+02       -9.1100e+01        1.000           6.4
  12      4.5764e+04       6.9385e+02       -9.0545e+01        1.000           6.8
  13      3.4574e+04       7.0243e+02       -9.3903e+01        1.000           7.3
  14      2.6121e+04       7.1207e+02       -1.0099e+02        1.000           7.7
  15      1.9734e+04       7.2240e+02       -1.1280e+02        1.000           8.2
  16      1.4909e+04       7.3464e+02       -1.2882e+02        1.000           8.6
  17      1.1263e+04       7.4823e+02       -1.5041e+02        1.000           9.1
  18      8.5095e+03       7.6492e+02       -1.7759e+02        1.000           9.5
  19      6.4288e+03       7.8517e+02       -2.1164e+02        1.000          10.0
  20      4.8569e+03       8.0943e+02       -2.5277e+02        1.000          10.5
  21      3.6694e+03       8.4022e+02       -3.0182e+02        1.000          10.9
  22      2.7722e+03       8.7644e+02       -3.6242e+02        1.000          11.4
  23      2.0944e+03       9.2037e+02       -4.3510e+02        1.000          11.8
  24      1.5823e+03       9.7317e+02       -5.2248e+02        0.999          12.3
  25      1.1954e+03       1.0365e+03       -6.2815e+02        0.999          12.8
  26      9.0311e+02       1.1129e+03       -7.5486e+02        1.000          13.2
  27      6.8229e+02       1.2052e+03       -9.0773e+02        0.999          13.7
  28      5.1546e+02       1.3171e+03       -1.0916e+03        0.999          14.1
  29      3.8943e+02       1.4555e+03       -1.3117e+03        0.999          14.6
  30      2.9421e+02       1.6220e+03       -1.5757e+03        0.999          15.1
  31      2.2227e+02       1.8273e+03       -1.8892e+03        0.999          15.5
  32      1.6793e+02       2.0759e+03       -2.2627e+03        0.999          16.0
  33      1.2687e+02       2.3812e+03       -2.7038e+03        0.999          16.4
  34      9.5846e+01       2.7559e+03       -3.2243e+03        0.999          17.0
  35      7.2411e+01       3.2154e+03       -3.8286e+03        0.999          17.5
  36      5.4092e+01       3.7801e+03       -4.5651e+03        0.999          18.9
  37      3.9533e+01       4.5405e+03       -5.4762e+03        0.999          21.1
  38      2.8174e+01       5.5647e+03       -6.6344e+03        0.998          22.9
  39      1.9503e+01       6.9582e+03       -8.0945e+03        0.998          24.5
  40      1.3058e+01       8.8679e+03       -9.9554e+03        0.997          26.4
  41      8.4196e+00       1.1519e+04       -1.2330e+04        0.995          28.6
  42      5.2123e+00       1.5203e+04       -1.5379e+04        0.994          31.3
  43      3.0979e+00       2.0261e+04       -1.9224e+04        0.991          34.7
  44      1.7783e+00       2.7157e+04       -2.4137e+04        0.988          39.7
  45      1.0000e+00       3.5991e+04       -3.0042e+04        0.984          44.2

File: 10.txt
File.......:  cell10ppobqliftfsi30w - DEC,02.2021

System.....:
Potential..:  0.008V
Current....:  -19.005nA
Temperature:  -0.8 +-0.0 C
Time.......:  16:26:22 - 16:27:09
Comment....:

              Main
time.......:  13080 s
Impedance samples

Lines:   45
Columns: 5

Number   Frequency/Hz   impedance R/Ohm   impedance I/Ohm   Significance   Time/s
   1      1.0000e+06       9.7858e+01       -1.5504e+01        0.999           0.0
   2      7.5549e+05       9.9971e+01       -1.4446e+01        0.999           1.3
   3      5.7077e+05       1.0162e+02       -1.3844e+01        0.999           1.8
   4      4.3121e+05       1.0374e+02       -1.3775e+01        1.000           2.5
   5      3.2578e+05       1.0539e+02       -1.4234e+01        1.000           3.3
   6      2.4612e+05       1.0716e+02       -1.5217e+01        1.000           3.7
   7      1.8594e+05       1.0891e+02       -1.6683e+01        1.000           4.1
   8      1.4048e+05       1.1163e+02       -1.8785e+01        1.000           4.6
   9      1.0613e+05       1.1434e+02       -2.1574e+01        1.000           5.1
  10      8.0180e+04       1.1732e+02       -2.5130e+01        1.000           5.5
  11      6.0575e+04       1.2085e+02       -2.9585e+01        1.000           6.0
  12      4.5764e+04       1.2515e+02       -3.5064e+01        1.000           6.4
  13      3.4574e+04       1.2992e+02       -4.1768e+01        1.000           6.9
  14      2.6121e+04       1.3564e+02       -4.9791e+01        1.000           7.4
  15      1.9734e+04       1.4249e+02       -5.9649e+01        1.000           7.9
  16      1.4909e+04       1.5019e+02       -7.1582e+01        1.000           8.3
  17      1.1263e+04       1.5916e+02       -8.6219e+01        1.000           8.8
  18      8.5095e+03       1.6960e+02       -1.0404e+02        0.999           9.3
  19      6.4288e+03       1.8202e+02       -1.2599e+02        0.999           9.7
  20      4.8569e+03       1.9697e+02       -1.5281e+02        1.000          10.2
  21      3.6694e+03       2.1452e+02       -1.8547e+02        0.999          10.7
  22      2.7722e+03       2.3549e+02       -2.2593e+02        0.999          11.1
  23      2.0944e+03       2.5920e+02       -2.7549e+02        1.000          11.6
  24      1.5823e+03       2.8892e+02       -3.3630e+02        0.999          12.1
  25      1.1954e+03       3.2079e+02       -4.1080e+02        0.998          12.6
  26      9.0311e+02       3.6671e+02       -5.0176e+02        0.998          13.0
  27      6.8229e+02       4.2492e+02       -6.0813e+02        0.999          13.7
  28      5.1546e+02       4.9454e+02       -7.4219e+02        0.998          14.4
  29      3.8943e+02       5.8143e+02       -9.0467e+02        0.998          14.9
  30      2.9421e+02       6.8819e+02       -1.1013e+03        0.998          15.4
  31      2.2227e+02       8.2192e+02       -1.3379e+03        0.999          15.9
  32      1.6793e+02       9.8495e+02       -1.6225e+03        0.999          16.3
  33      1.2687e+02       1.1861e+03       -1.9639e+03        0.999          16.8
  34      9.5846e+01       1.4345e+03       -2.3723e+03        0.999          17.3
  35      7.2411e+01       1.7413e+03       -2.8579e+03        0.999          17.9
  36      5.4092e+01       2.1359e+03       -3.4591e+03        0.999          19.3
  37      3.9533e+01       2.6684e+03       -4.2331e+03        0.999          21.1
  38      2.8174e+01       3.3980e+03       -5.2483e+03        0.999          22.5
  39      1.9503e+01       4.3813e+03       -6.5869e+03        0.998          24.6
  40      1.3058e+01       5.7648e+03       -8.3990e+03        0.998          26.8
  41      8.4196e+00       7.7464e+03       -1.0882e+04        0.998          29.1
  42      5.2123e+00       1.0686e+04       -1.4333e+04        0.998          31.8
  43      3.0979e+00       1.5094e+04       -1.9168e+04        0.998          35.2
  44      1.7783e+00       2.1564e+04       -2.5900e+04        0.997          40.2
  45      1.0000e+00       3.0969e+04       -3.4816e+04        0.996          44.8