Folder: GlassyIonicConductorDatabase/database/experiments/MU/battery/922(806)/data

Note: README.md
# GlassyIonicConductorDatabase

- Contains daily experimental data of polymeric ionic conductors
  
  - Process (as flowchart), structure, measurements, and properties

- Data are processed by machine learning tools

# Requirements

- Check for env. yml

- This database is processed by "FlowMater", which can treat graph data.
  
  - Visit the following URL for the latest version.
  
  - https://github.com/KanHatakeyama/FlowMater2

# Related paper

- TBD

# History

- version 2022.1.18: initial version

# Author

- Kan Hatakeyama-Sato
- Waseda University
- [Kan Hatakeyama](https://kanhatakeyama.github.io/)
- [satokan@toki.waseda](mailto:satokan@toki.waseda).(japan)

File: 05.txt
Sept. 23, 2021   19:50:59
Chronopotentiometry
File: c:\users\user\desktop\data\2021_m2\umeki\210923\cp05c.txt
Data Source:  Experiment
Instrument Model:  CHI760E
Header:
Note:

Cathodic Current (A) = 5.9e-4
Anodic Current (A) = 5.9e-4
Init P/N = N
Data Storage Interval (s) = 0.1
High E Limit (V) = 2.5
Low E Limit (V) = 1
Cathodic Time (s) = 10
Anodic Time (s) = 10
Current Switching Polarity = Potential
Segment = 3

Time/sec, Potential/V

1.000e-1, 1.617e+0
1.200e+1, 1.554e+0
2.390e+1, 1.500e+0
3.580e+1, 1.428e+0
4.770e+1, 1.315e+0
5.960e+1, 1.070e+0
7.150e+1, 1.885e+0
8.340e+1, 1.910e+0
9.530e+1, 1.928e+0
1.072e+2, 1.941e+0
1.191e+2, 1.952e+0
1.310e+2, 1.961e+0
1.429e+2, 1.969e+0
1.548e+2, 1.975e+0
1.667e+2, 1.979e+0
1.786e+2, 1.982e+0
1.905e+2, 1.985e+0
2.024e+2, 1.987e+0
2.143e+2, 1.989e+0
2.262e+2, 1.990e+0
2.381e+2, 1.991e+0
2.500e+2, 1.993e+0
2.619e+2, 1.994e+0
2.738e+2, 1.995e+0
2.857e+2, 1.996e+0
2.976e+2, 1.998e+0
3.095e+2, 1.999e+0
3.214e+2, 2.000e+0
3.333e+2, 2.001e+0
3.452e+2, 2.001e+0
3.571e+2, 2.002e+0
3.690e+2, 2.003e+0
3.809e+2, 2.004e+0
3.928e+2, 2.005e+0
4.047e+2, 2.005e+0
4.166e+2, 2.006e+0
4.285e+2, 2.007e+0
4.404e+2, 2.008e+0
4.523e+2, 2.008e+0
4.642e+2, 2.009e+0
4.761e+2, 2.010e+0
4.880e+2, 2.010e+0
4.999e+2, 2.011e+0
5.118e+2, 2.011e+0
5.237e+2, 2.012e+0
5.356e+2, 2.012e+0
5.475e+2, 2.013e+0
5.594e+2, 2.013e+0
5.713e+2, 2.014e+0
5.832e+2, 2.014e+0
5.951e+2, 2.015e+0
6.070e+2, 2.015e+0
6.189e+2, 2.016e+0
6.308e+2, 2.016e+0
6.427e+2, 2.017e+0
6.546e+2, 2.017e+0
6.665e+2, 2.018e+0
6.784e+2, 2.018e+0
6.903e+2, 2.019e+0
7.022e+2, 2.019e+0
7.141e+2, 2.020e+0
7.260e+2, 2.020e+0
7.379e+2, 2.021e+0
7.498e+2, 2.022e+0
7.617e+2, 2.022e+0
7.736e+2, 2.023e+0
7.855e+2, 2.024e+0
7.974e+2, 2.025e+0
8.092e+2, 2.026e+0
8.211e+2, 2.027e+0
8.330e+2, 2.028e+0
8.449e+2, 2.029e+0
8.568e+2, 2.030e+0
8.687e+2, 2.032e+0
8.806e+2, 2.033e+0
8.925e+2, 2.034e+0
9.044e+2, 2.036e+0
9.163e+2, 2.037e+0
9.282e+2, 2.039e+0
9.401e+2, 2.040e+0
9.520e+2, 2.042e+0
9.639e+2, 2.044e+0
9.758e+2, 2.046e+0
9.877e+2, 2.048e+0
9.996e+2, 2.050e+0
1.012e+3, 2.052e+0
1.023e+3, 2.054e+0
1.035e+3, 2.056e+0
1.047e+3, 2.058e+0
1.059e+3, 2.061e+0
1.071e+3, 2.063e+0
1.083e+3, 2.065e+0
1.095e+3, 2.068e+0
1.107e+3, 2.070e+0
1.119e+3, 2.073e+0
1.130e+3, 2.075e+0
1.142e+3, 2.078e+0
1.154e+3, 2.080e+0
1.166e+3, 2.083e+0
1.178e+3, 2.086e+0
1.190e+3, 2.088e+0
1.202e+3, 2.091e+0
1.214e+3, 2.094e+0
1.226e+3, 2.097e+0
1.238e+3, 2.100e+0
1.249e+3, 2.103e+0
1.261e+3, 2.106e+0
1.273e+3, 2.109e+0
1.285e+3, 2.112e+0
1.297e+3, 2.115e+0
1.309e+3, 2.118e+0
1.321e+3, 2.121e+0
1.333e+3, 2.124e+0
1.345e+3, 2.128e+0
1.357e+3, 2.131e+0
1.368e+3, 2.134e+0
1.380e+3, 2.138e+0
1.392e+3, 2.141e+0
1.404e+3, 2.145e+0
1.416e+3, 2.149e+0
1.428e+3, 2.153e+0
1.440e+3, 2.157e+0
1.452e+3, 2.161e+0
1.464e+3, 2.164e+0
1.475e+3, 2.168e+0
1.487e+3, 2.172e+0
1.499e+3, 2.176e+0
1.511e+3, 2.180e+0
1.523e+3, 2.184e+0
1.535e+3, 2.188e+0
1.547e+3, 2.192e+0
1.559e+3, 2.197e+0
1.571e+3, 2.201e+0
1.583e+3, 2.205e+0
1.594e+3, 2.210e+0
1.606e+3, 2.215e+0
1.618e+3, 2.220e+0
1.630e+3, 2.225e+0
1.642e+3, 2.230e+0
1.654e+3, 2.235e+0
1.666e+3, 2.241e+0
1.678e+3, 2.247e+0
1.690e+3, 2.253e+0
1.702e+3, 2.260e+0
1.713e+3, 2.267e+0
1.725e+3, 2.275e+0
1.737e+3, 2.283e+0
1.749e+3, 2.291e+0
1.761e+3, 2.301e+0
1.773e+3, 2.312e+0
1.785e+3, 2.324e+0
1.797e+3, 2.338e+0
1.809e+3, 2.353e+0
1.821e+3, 2.371e+0
1.832e+3, 2.390e+0
1.844e+3, 2.413e+0
1.856e+3, 2.439e+0
1.868e+3, 2.470e+0
1.880e+3, 2.013e+0
1.892e+3, 1.863e+0
1.904e+3, 1.814e+0
1.916e+3, 1.787e+0
1.928e+3, 1.770e+0
1.939e+3, 1.758e+0
1.951e+3, 1.750e+0
1.963e+3, 1.745e+0
1.975e+3, 1.740e+0
1.987e+3, 1.737e+0
1.999e+3, 1.735e+0
2.011e+3, 1.733e+0
2.023e+3, 1.731e+0
2.035e+3, 1.730e+0
2.047e+3, 1.729e+0
2.058e+3, 1.728e+0
2.070e+3, 1.727e+0
2.082e+3, 1.726e+0
2.094e+3, 1.725e+0
2.106e+3, 1.724e+0
2.118e+3, 1.724e+0
2.130e+3, 1.723e+0
2.142e+3, 1.722e+0
2.154e+3, 1.721e+0
2.166e+3, 1.721e+0
2.178e+3, 1.720e+0
2.189e+3, 1.719e+0
2.201e+3, 1.718e+0
2.213e+3, 1.718e+0
2.225e+3, 1.717e+0
2.237e+3, 1.716e+0
2.249e+3, 1.716e+0
2.261e+3, 1.715e+0
2.273e+3, 1.715e+0
2.285e+3, 1.714e+0
2.297e+3, 1.713e+0
2.309e+3, 1.713e+0
2.321e+3, 1.712e+0
2.332e+3, 1.712e+0
2.344e+3, 1.711e+0
2.356e+3, 1.711e+0
2.368e+3, 1.710e+0
2.380e+3, 1.709e+0
2.392e+3, 1.709e+0
2.404e+3, 1.708e+0
2.416e+3, 1.708e+0
2.428e+3, 1.707e+0
2.440e+3, 1.707e+0
2.452e+3, 1.706e+0
2.463e+3, 1.706e+0
2.475e+3, 1.705e+0
2.487e+3, 1.705e+0
2.499e+3, 1.704e+0
2.511e+3, 1.704e+0
2.523e+3, 1.703e+0
2.535e+3, 1.703e+0
2.547e+3, 1.702e+0
2.559e+3, 1.702e+0
2.571e+3, 1.701e+0
2.583e+3, 1.701e+0
2.594e+3, 1.700e+0
2.606e+3, 1.700e+0
2.618e+3, 1.699e+0
2.630e+3, 1.698e+0
2.642e+3, 1.698e+0
2.654e+3, 1.697e+0
2.666e+3, 1.696e+0
2.678e+3, 1.695e+0
2.690e+3, 1.695e+0
2.702e+3, 1.694e+0
2.714e+3, 1.693e+0
2.726e+3, 1.692e+0
2.737e+3, 1.690e+0
2.749e+3, 1.689e+0
2.761e+3, 1.688e+0
2.773e+3, 1.686e+0
2.785e+3, 1.685e+0
2.797e+3, 1.683e+0
2.809e+3, 1.682e+0
2.821e+3, 1.680e+0
2.833e+3, 1.678e+0
2.845e+3, 1.676e+0
2.857e+3, 1.674e+0
2.868e+3, 1.672e+0
2.880e+3, 1.670e+0
2.892e+3, 1.668e+0
2.904e+3, 1.665e+0
2.916e+3, 1.663e+0
2.928e+3, 1.660e+0
2.940e+3, 1.657e+0
2.952e+3, 1.655e+0
2.964e+3, 1.652e+0
2.976e+3, 1.649e+0
2.988e+3, 1.646e+0
2.999e+3, 1.643e+0
3.011e+3, 1.640e+0
3.023e+3, 1.637e+0
3.035e+3, 1.634e+0
3.047e+3, 1.632e+0
3.059e+3, 1.629e+0
3.071e+3, 1.626e+0
3.083e+3, 1.623e+0
3.095e+3, 1.619e+0
3.107e+3, 1.616e+0
3.119e+3, 1.613e+0
3.131e+3, 1.610e+0
3.142e+3, 1.607e+0
3.154e+3, 1.604e+0
3.166e+3, 1.600e+0
3.178e+3, 1.597e+0
3.190e+3, 1.594e+0
3.202e+3, 1.590e+0
3.214e+3, 1.587e+0
3.226e+3, 1.583e+0
3.238e+3, 1.579e+0
3.250e+3, 1.575e+0
3.262e+3, 1.571e+0
3.273e+3, 1.566e+0
3.285e+3, 1.562e+0
3.297e+3, 1.557e+0
3.309e+3, 1.551e+0
3.321e+3, 1.546e+0
3.333e+3, 1.540e+0
3.345e+3, 1.534e+0
3.357e+3, 1.528e+0
3.369e+3, 1.521e+0
3.381e+3, 1.514e+0
3.393e+3, 1.506e+0
3.404e+3, 1.497e+0
3.416e+3, 1.488e+0
3.428e+3, 1.477e+0
3.440e+3, 1.466e+0
3.452e+3, 1.453e+0
3.464e+3, 1.438e+0
3.476e+3, 1.421e+0
3.488e+3, 1.400e+0
3.500e+3, 1.375e+0
3.512e+3, 1.343e+0
3.524e+3, 1.301e+0
3.535e+3, 1.243e+0
3.547e+3, 1.166e+0
3.559e+3, 1.067e+0
3.566e+3, 1.001e+0

File: cv.txt
Sept. 23, 2021   18:22:21
Cyclic Voltammetry
File: c:\users\user\desktop\data\2021_m2\umeki\210923\2lfp_ppobqliftfsi_lto 50do05mv 0922made.txt
Data Source:  Experiment
Instrument Model:  CHI760E
Header:
Note:

Init E (V) = 1
High E (V) = 2.5
Low E (V) = 1
Init P/N = P
Scan Rate (V/s) = 5e-4
Segment = 6
Sample Interval (V) = 0.001
Quiet Time (sec) = 2
Sensitivity (A/V) = 0.001

Segment 1:

Segment 2:

Segment 3:

Segment 4:

Segment 5:

Segment 6:

Potential/V, Current/A

Segment 1:
1.000, -2.762e-4
1.005, -1.705e-4
1.010, -1.427e-4
1.015, -1.274e-4
1.020, -1.165e-4
1.025, -1.080e-4
1.030, -1.007e-4
1.035, -9.443e-5
1.040, -8.885e-5
1.045, -8.377e-5
1.050, -7.915e-5
1.055, -7.471e-5
1.060, -7.049e-5
1.065, -6.658e-5
1.070, -6.287e-5
1.075, -5.943e-5
1.080, -5.617e-5
1.085, -5.320e-5
1.090, -5.044e-5
1.095, -4.790e-5
1.100, -4.555e-5
1.105, -4.339e-5
1.110, -4.140e-5
1.115, -3.953e-5
1.120, -3.777e-5
1.125, -3.610e-5
1.130, -3.453e-5
1.135, -3.301e-5
1.140, -3.155e-5
1.145, -3.020e-5
1.150, -2.887e-5
1.155, -2.762e-5
1.160, -2.644e-5
1.165, -2.531e-5
1.170, -2.419e-5
1.175, -2.304e-5
1.180, -2.202e-5
1.185, -2.108e-5
1.190, -2.017e-5
1.195, -1.928e-5
1.200, -1.843e-5
1.205, -1.763e-5
1.210, -1.686e-5
1.215, -1.611e-5
1.220, -1.539e-5
1.225, -1.468e-5
1.230, -1.398e-5
1.235, -1.330e-5
1.240, -1.265e-5
1.245, -1.197e-5
1.250, -1.133e-5
1.255, -1.077e-5
1.260, -1.026e-5
1.265, -9.793e-6
1.270, -9.339e-6
1.275, -8.906e-6
1.280, -8.485e-6
1.285, -8.069e-6
1.290, -7.672e-6
1.295, -7.288e-6
1.300, -6.905e-6
1.305, -6.529e-6
1.310, -6.162e-6
1.315, -5.807e-6
1.320, -5.459e-6
1.325, -5.120e-6
1.330, -4.788e-6
1.335, -4.465e-6
1.340, -4.147e-6
1.345, -3.833e-6
1.350, -3.523e-6
1.355, -3.209e-6
1.360, -2.890e-6
1.365, -2.570e-6
1.370, -2.259e-6
1.375, -1.944e-6
1.380, -1.632e-6
1.385, -1.323e-6
1.390, -1.019e-6
1.395, -7.173e-7
1.400, -4.111e-7
1.405, -1.111e-7
1.410, 1.935e-7
1.415, 5.005e-7
1.420, 8.159e-7
1.425, 1.134e-6
1.430, 1.455e-6
1.435, 1.783e-6
1.440, 2.118e-6
1.445, 2.458e-6
1.450, 2.795e-6
1.455, 3.142e-6
1.460, 3.490e-6
1.465, 3.852e-6
1.470, 4.223e-6
1.475, 4.607e-6
1.480, 5.001e-6
1.485, 5.400e-6
1.490, 5.816e-6
1.495, 6.249e-6
1.500, 6.692e-6
1.505, 7.159e-6
1.510, 7.640e-6
1.515, 8.137e-6
1.520, 8.661e-6
1.525, 9.221e-6
1.530, 9.806e-6
1.535, 1.042e-5
1.540, 1.105e-5
1.545, 1.172e-5
1.550, 1.242e-5
1.555, 1.316e-5
1.560, 1.395e-5
1.565, 1.480e-5
1.570, 1.567e-5
1.575, 1.651e-5
1.580, 1.749e-5
1.585, 1.851e-5
1.590, 1.965e-5
1.595, 2.081e-5
1.600, 2.202e-5
1.605, 2.332e-5
1.610, 2.468e-5
1.615, 2.608e-5
1.620, 2.754e-5
1.625, 2.905e-5
1.630, 3.063e-5
1.635, 3.226e-5
1.640, 3.398e-5
1.645, 3.566e-5
1.650, 3.745e-5
1.655, 3.929e-5
1.660, 4.120e-5
1.665, 4.318e-5
1.670, 4.527e-5
1.675, 4.744e-5
1.680, 4.973e-5
1.685, 5.214e-5
1.690, 5.472e-5
1.695, 5.729e-5
1.700, 5.992e-5
1.705, 6.261e-5
1.710, 6.532e-5
1.715, 6.807e-5
1.720, 7.089e-5
1.725, 7.369e-5
1.730, 7.661e-5
1.735, 7.956e-5
1.740, 8.258e-5
1.745, 8.565e-5
1.750, 8.883e-5
1.755, 9.210e-5
1.760, 9.545e-5
1.765, 9.895e-5
1.770, 1.026e-4
1.775, 1.063e-4
1.780, 1.101e-4
1.785, 1.141e-4
1.790, 1.182e-4
1.795, 1.225e-4
1.800, 1.270e-4
1.805, 1.317e-4
1.810, 1.365e-4
1.815, 1.415e-4
1.820, 1.466e-4
1.825, 1.519e-4
1.830, 1.574e-4
1.835, 1.631e-4
1.840, 1.690e-4
1.845, 1.750e-4
1.850, 1.814e-4
1.855, 1.879e-4
1.860, 1.946e-4
1.865, 2.016e-4
1.870, 2.087e-4
1.875, 2.161e-4
1.880, 2.237e-4
1.885, 2.315e-4
1.890, 2.396e-4
1.895, 2.478e-4
1.900, 2.563e-4
1.905, 2.650e-4
1.910, 2.739e-4
1.915, 2.832e-4
1.920, 2.928e-4
1.925, 3.028e-4
1.930, 3.134e-4
1.935, 3.249e-4
1.940, 3.378e-4
1.945, 3.522e-4
1.950, 3.682e-4
1.955, 3.853e-4
1.960, 4.036e-4
1.965, 4.226e-4
1.970, 4.422e-4
1.975, 4.619e-4
1.980, 4.817e-4
1.985, 5.016e-4
1.990, 5.217e-4
1.995, 5.417e-4
2.000, 5.617e-4
2.005, 5.816e-4
2.010, 6.016e-4
2.015, 6.214e-4
2.020, 6.409e-4
2.025, 6.605e-4
2.030, 6.801e-4
2.035, 6.994e-4
2.040, 7.187e-4
2.045, 7.377e-4
2.050, 7.567e-4
2.055, 7.754e-4
2.060, 7.938e-4
2.065, 8.121e-4
2.070, 8.304e-4
2.075, 8.482e-4
2.080, 8.658e-4
2.085, 8.832e-4
2.090, 9.002e-4
2.095, 9.169e-4
2.100, 9.332e-4
2.105, 9.489e-4
2.110, 9.642e-4
2.115, 9.789e-4
2.120, 9.928e-4
2.125, 1.006e-3
2.130, 1.018e-3
2.135, 1.028e-3
2.140, 1.036e-3
2.145, 1.044e-3
2.150, 1.050e-3
2.155, 1.056e-3
2.160, 1.061e-3
2.165, 1.066e-3
2.170, 1.070e-3
2.175, 1.073e-3
2.180, 1.076e-3
2.185, 1.079e-3
2.190, 1.081e-3
2.195, 1.082e-3
2.200, 1.082e-3
2.205, 1.080e-3
2.210, 1.078e-3
2.215, 1.074e-3
2.220, 1.070e-3
2.225, 1.064e-3
2.230, 1.058e-3
2.235, 1.052e-3
2.240, 1.045e-3
2.245, 1.038e-3
2.250, 1.031e-3
2.255, 1.023e-3
2.260, 1.016e-3
2.265, 1.008e-3
2.270, 1.000e-3
2.275, 9.929e-4
2.280, 9.852e-4
2.285, 9.772e-4
2.290, 9.691e-4
2.295, 9.608e-4
2.300, 9.524e-4
2.305, 9.440e-4
2.310, 9.359e-4
2.315, 9.277e-4
2.320, 9.199e-4
2.325, 9.120e-4
2.330, 9.038e-4
2.335, 8.956e-4
2.340, 8.880e-4
2.345, 8.810e-4
2.350, 8.742e-4
2.355, 8.673e-4
2.360, 8.605e-4
2.365, 8.536e-4
2.370, 8.467e-4
2.375, 8.401e-4
2.380, 8.335e-4
2.385, 8.270e-4
2.390, 8.202e-4
2.395, 8.137e-4
2.400, 8.071e-4
2.405, 8.006e-4
2.410, 7.939e-4
2.415, 7.869e-4
2.420, 7.800e-4
2.425, 7.731e-4
2.430, 7.664e-4
2.435, 7.596e-4
2.440, 7.525e-4
2.445, 7.451e-4
2.450, 7.378e-4
2.455, 7.304e-4
2.460, 7.233e-4
2.465, 7.162e-4
2.470, 7.094e-4
2.475, 7.027e-4
2.480, 6.956e-4
2.485, 6.886e-4
2.490, 6.815e-4
2.495, 6.743e-4
2.499, 6.686e-4

Segment 2:
2.500, 6.649e-4
2.495, 6.407e-4
2.490, 6.202e-4
2.485, 6.008e-4
2.480, 5.824e-4
2.475, 5.655e-4
2.470, 5.496e-4
2.465, 5.345e-4
2.460, 5.201e-4
2.455, 5.063e-4
2.450, 4.932e-4
2.445, 4.805e-4
2.440, 4.684e-4
2.435, 4.565e-4
2.430, 4.448e-4
2.425, 4.333e-4
2.420, 4.220e-4
2.415, 4.108e-4
2.410, 3.997e-4
2.405, 3.887e-4
2.400, 3.779e-4
2.395, 3.672e-4
2.390, 3.565e-4
2.385, 3.460e-4
2.380, 3.356e-4
2.375, 3.252e-4
2.370, 3.151e-4
2.365, 3.049e-4
2.360, 2.951e-4
2.355, 2.856e-4
2.350, 2.764e-4
2.345, 2.676e-4
2.340, 2.591e-4
2.335, 2.510e-4
2.330, 2.432e-4
2.325, 2.357e-4
2.320, 2.284e-4
2.315, 2.215e-4
2.310, 2.147e-4
2.305, 2.081e-4
2.300, 2.016e-4
2.295, 1.954e-4
2.290, 1.894e-4
2.285, 1.836e-4
2.280, 1.780e-4
2.275, 1.726e-4
2.270, 1.676e-4
2.265, 1.625e-4
2.260, 1.576e-4
2.255, 1.529e-4
2.250, 1.483e-4
2.245, 1.439e-4
2.240, 1.396e-4
2.235, 1.354e-4
2.230, 1.314e-4
2.225, 1.275e-4
2.220, 1.238e-4
2.215, 1.204e-4
2.210, 1.170e-4
2.205, 1.138e-4
2.200, 1.108e-4
2.195, 1.078e-4
2.190, 1.049e-4
2.185, 1.020e-4
2.180, 9.925e-5
2.175, 9.653e-5
2.170, 9.385e-5
2.165, 9.116e-5
2.160, 8.856e-5
2.155, 8.595e-5
2.150, 8.335e-5
2.145, 8.074e-5
2.140, 7.814e-5
2.135, 7.559e-5
2.130, 7.303e-5
2.125, 7.048e-5
2.120, 6.792e-5
2.115, 6.532e-5
2.110, 6.275e-5
2.105, 6.014e-5
2.100, 5.751e-5
2.095, 5.495e-5
2.090, 5.225e-5
2.085, 4.965e-5
2.080, 4.700e-5
2.075, 4.433e-5
2.070, 4.165e-5
2.065, 3.893e-5
2.060, 3.620e-5
2.055, 3.349e-5
2.050, 3.070e-5
2.045, 2.794e-5
2.040, 2.508e-5
2.035, 2.215e-5
2.030, 1.916e-5
2.025, 1.620e-5
2.020, 1.312e-5
2.015, 1.008e-5
2.010, 6.907e-6
2.005, 3.680e-6
2.000, 3.512e-7
1.995, -3.032e-6
1.990, -6.468e-6
1.985, -1.004e-5
1.980, -1.363e-5
1.975, -1.743e-5
1.970, -2.129e-5
1.965, -2.535e-5
1.960, -2.945e-5
1.955, -3.367e-5
1.950, -3.806e-5
1.945, -4.253e-5
1.940, -4.716e-5
1.935, -5.198e-5
1.930, -5.691e-5
1.925, -6.208e-5
1.920, -6.737e-5
1.915, -7.292e-5
1.910, -7.863e-5
[...]
1.189, -2.643e-5
1.192, -2.577e-5
1.195, -2.513e-5
1.198, -2.449e-5
1.201, -2.385e-5
1.204, -2.320e-5
1.207, -2.259e-5
1.210, -2.201e-5
1.213, -2.146e-5
1.216, -2.093e-5
1.219, -2.040e-5
1.222, -1.988e-5
1.225, -1.936e-5
1.228, -1.885e-5
1.231, -1.836e-5
1.234, -1.789e-5
1.237, -1.743e-5
1.240, -1.697e-5
1.243, -1.651e-5
1.246, -1.605e-5
1.249, -1.560e-5
1.252, -1.516e-5
1.255, -1.473e-5
1.258, -1.429e-5
1.261, -1.386e-5
1.264, -1.345e-5
1.267, -1.306e-5
1.270, -1.268e-5
1.273, -1.231e-5
1.276, -1.194e-5
1.279, -1.158e-5
1.282, -1.122e-5
1.285, -1.088e-5
1.288, -1.055e-5
1.291, -1.024e-5
1.294, -9.921e-6
1.297, -9.615e-6
1.300, -9.322e-6
1.303, -9.042e-6
1.306, -8.772e-6
1.309, -8.506e-6
1.312, -8.245e-6
1.315, -7.989e-6
1.318, -7.743e-6
1.321, -7.495e-6
1.324, -7.255e-6
1.327, -7.016e-6
1.330, -6.779e-6
1.333, -6.543e-6
1.336, -6.308e-6
1.339, -6.079e-6
1.342, -5.853e-6
1.345, -5.628e-6
1.348, -5.403e-6
1.351, -5.182e-6
1.354, -4.971e-6
1.357, -4.765e-6
1.360, -4.560e-6
1.363, -4.358e-6
1.366, -4.152e-6
1.369, -3.956e-6
1.372, -3.749e-6
1.375, -3.550e-6
1.378, -3.351e-6
1.381, -3.153e-6
1.384, -2.952e-6
1.387, -2.753e-6
1.390, -2.549e-6
1.393, -2.350e-6
1.396, -2.149e-6
1.399, -1.945e-6
1.402, -1.740e-6
1.405, -1.535e-6
1.408, -1.328e-6
1.411, -1.123e-6
1.414, -9.160e-7
1.417, -7.065e-7
1.420, -4.985e-7
1.423, -2.897e-7
1.426, -8.175e-8
1.429, 1.201e-7
1.432, 3.242e-7
1.435, 5.422e-7
1.438, 7.541e-7
1.441, 9.744e-7
1.444, 1.196e-6
1.447, 1.417e-6
1.450, 1.639e-6
1.453, 1.869e-6
1.456, 2.098e-6
1.459, 2.327e-6
1.462, 2.563e-6
1.465, 2.797e-6
1.468, 3.030e-6
1.471, 3.272e-6
1.474, 3.519e-6
1.477, 3.769e-6
1.480, 4.019e-6
1.483, 4.279e-6
1.486, 4.545e-6
1.489, 4.815e-6
1.492, 5.089e-6
1.495, 5.365e-6
1.498, 5.638e-6
1.501, 5.927e-6
1.504, 6.215e-6
1.507, 6.517e-6
1.510, 6.824e-6
1.513, 7.148e-6
1.516, 7.472e-6
1.519, 7.797e-6
1.522, 8.124e-6
1.525, 8.461e-6
1.528, 8.816e-6
1.531, 9.191e-6
1.534, 9.576e-6
1.537, 9.965e-6
1.540, 1.037e-5
1.543, 1.078e-5
1.546, 1.120e-5
1.549, 1.163e-5
1.552, 1.207e-5
1.555, 1.255e-5
1.558, 1.303e-5
1.561, 1.353e-5
1.564, 1.406e-5
1.567, 1.460e-5
1.570, 1.514e-5
1.573, 1.569e-5
1.576, 1.622e-5
1.579, 1.680e-5
1.582, 1.742e-5
1.585, 1.805e-5
1.588, 1.872e-5
1.591, 1.943e-5
1.594, 2.014e-5
1.597, 2.086e-5
1.600, 2.161e-5
1.603, 2.238e-5
1.606, 2.316e-5
1.609, 2.399e-5
1.612, 2.484e-5
1.615, 2.568e-5
1.618, 2.654e-5
1.621, 2.744e-5
1.624, 2.833e-5
1.627, 2.926e-5
1.630, 3.022e-5
1.633, 3.119e-5
1.636, 3.218e-5
1.639, 3.323e-5
1.642, 3.422e-5
1.645, 3.524e-5
1.648, 3.626e-5
1.651, 3.735e-5
1.654, 3.846e-5
1.657, 3.959e-5
1.660, 4.075e-5
1.663, 4.193e-5
1.666, 4.314e-5
1.669, 4.441e-5
1.672, 4.571e-5
1.675, 4.703e-5
1.678, 4.841e-5
1.681, 4.983e-5
1.684, 5.128e-5
1.687, 5.278e-5
1.690, 5.436e-5
1.693, 5.590e-5
1.696, 5.747e-5
1.699, 5.910e-5
1.702, 6.070e-5
1.705, 6.237e-5
1.708, 6.402e-5
1.711, 6.570e-5
1.714, 6.736e-5
1.717, 6.909e-5
1.720, 7.081e-5
1.723, 7.255e-5
1.726, 7.428e-5
1.729, 7.609e-5
1.732, 7.791e-5
1.735, 7.974e-5
1.738, 8.162e-5
1.741, 8.349e-5
1.744, 8.544e-5
1.747, 8.740e-5
1.750, 8.938e-5
1.753, 9.144e-5
1.756, 9.351e-5
1.759, 9.563e-5
1.762, 9.778e-5
1.765, 9.998e-5
1.768, 1.022e-4
1.771, 1.045e-4
1.774, 1.069e-4
1.777, 1.093e-4
1.780, 1.117e-4
1.783, 1.142e-4
1.786, 1.168e-4
1.789, 1.194e-4
1.792, 1.221e-4
1.795, 1.248e-4
1.798, 1.277e-4
1.801, 1.306e-4
1.804, 1.335e-4
1.807, 1.365e-4
1.810, 1.396e-4
1.813, 1.427e-4
1.816, 1.459e-4
1.819, 1.491e-4
1.822, 1.524e-4
1.825, 1.558e-4
1.828, 1.593e-4
1.831, 1.628e-4
1.834, 1.665e-4
1.837, 1.700e-4
1.840, 1.737e-4
1.843, 1.776e-4
1.846, 1.816e-4
1.849, 1.855e-4
1.852, 1.896e-4
1.855, 1.936e-4
1.856, 1.949e-4