Folder: GlassyIonicConductorDatabase/database/experiments/MU/xrd/930(913)_ppo_chloranil_liftfsi_for_xrd

Note: README.md
# GlassyIonicConductorDatabase

- Contains daily experimental data of polymeric ionic conductors
  
  - Process (as flowchart), structure, measurements, and properties

- Data are processed by machine learning tools

# Requirements

- Check for env. yml

- This database is processed by "FlowMater", which can treat graph data.
  
  - Visit the following URL for the latest version.
  
  - https://github.com/KanHatakeyama/FlowMater2

# Related paper

- TBD

# History

- version 2022.1.18: initial version

# Author

- Kan Hatakeyama-Sato
- Waseda University
- [Kan Hatakeyama](https://kanhatakeyama.github.io/)
- [satokan@toki.waseda](mailto:satokan@toki.waseda).(japan)

File: xrd.csv
x,y
10,24132.2
10.27,25484.5
10.54,25519.1
10.81,29177.1
11.08,26507.3
11.35,26091.2
11.62,25727.2
11.89,26108.6
12.16,26854
12.43,26611.3
12.7,26715.3
12.97,27062.1
13.24,27079.4
13.51,27790.2
13.78,27356.8
14.05,27582.2
14.32,27512.8
14.59,27807.5
14.86,26611.3
15.13,27547.5
15.4,27859.5
15.67,27304.8
15.94,25952.5
16.21,26368.6
16.48,26212.6
16.75,25865.9
17.02,29818.6
17.29,29783.9
17.56,26091.2
17.83,25449.8
18.1,25623.2
18.37,28449
18.64,24461.6
18.91,29107.8
19.18,39578.9
19.45,26316.6
19.72,24218.9
19.99,22970.7
20.26,24080.2
20.53,22173.2
20.8,23317.4
21.07,22086.5
21.34,22624
21.61,22658.6
21.88,22415.9
22.15,22173.2
22.42,22121.2
22.69,22277.2
22.96,24704.3
23.23,24895
23.5,21479.8
23.77,20873
24.04,20838.3
24.31,21185
24.58,28934.4
24.85,29333.1
25.12,21722.5
25.39,18532.6
25.66,19295.4
25.93,18705.9
26.2,16642.9
26.47,17041.7
26.74,16729.6
27.01,16885.6
27.28,16486.9
27.55,15897.5
27.82,15758.8
28.09,15949.5
28.36,15342.7
28.63,16140.2
28.9,18168.5
29.17,15862.8
29.44,14805.3
29.71,14423.9
29.98,14354.5
30.25,13765.1
30.52,13522.4
30.79,14077.1
31.06,14129.1
31.33,12880.9
31.6,13730.4
31.87,14649.2
32.14,14319.8
32.41,12430.2
32.68,12690.2
32.95,14302.5
33.22,19468.7
33.49,16296.2
33.76,12638.2
34.03,13037
34.3,12828.9
34.57,12690.2
34.84,13210.3
35.11,11147.3
35.38,11511.3
35.65,11650
35.92,11823.4
36.19,11771.4
36.46,12256.8
36.73,10800.6
37,11286
37.27,11147.3
37.54,9864.39
37.81,11910.1
38.08,16001.5
38.35,13279.7
38.62,11216.6
38.89,10037.8
39.16,10817.9
39.43,9430.99
39.7,9344.3
39.97,9621.69
40.24,9483
40.51,9795.05
40.78,10107.1
41.05,9916.4
41.32,9829.72
41.59,9777.71
41.86,9413.65
42.13,10124.4
42.4,10887.2
42.67,10089.8
42.94,9396.31
43.21,9483
43.48,8945.57
43.75,9552.34
44.02,9881.73
44.29,10193.8
44.56,9569.68
44.83,9188.28
45.1,8876.22
45.37,8702.86
45.64,7905.38
45.91,8616.18
46.18,7940.06
46.45,8754.87
46.72,9240.29
46.99,9066.92
47.26,9101.59
47.53,8494.82
47.8,8928.23
48.07,8044.08
48.34,8356.13
48.61,8200.1
48.88,7922.72
49.15,9014.91
49.42,8754.87
49.69,9812.39
49.96,8373.47
50.23,7697.35
50.5,6917.21
50.77,7367.96
51.04,7697.35
51.31,7523.98
51.58,7107.91
51.85,6587.82
52.12,6293.1
52.39,6154.41
52.66,5634.32
52.93,6154.41
53.2,6241.09
53.47,6709.18
53.74,5894.37
54.01,5981.05
54.28,6293.1
54.55,5877.03
54.82,5842.36
55.09,5668.99
55.36,6154.41
55.63,5825.02
55.9,4802.17
56.17,4802.17
56.44,5755.67
56.71,5166.24
56.98,4871.52
57.25,5027.55
57.52,4767.5
57.79,4108.72
58.06,4732.83
58.33,4091.38
58.6,4039.37
58.87,3883.35
59.14,5010.21
59.41,4438.11
59.68,4108.72
59.95,4906.19
60.22,4316.76
60.49,4750.17
60.76,4420.77
61.03,4316.76
61.3,4472.78
61.57,4212.74
61.84,3657.97
62.11,3883.35
62.38,3779.33
62.65,4143.39
62.92,3935.36
63.19,4056.71
63.46,4212.74
63.73,3744.66
64,3449.94
64.27,3952.69
64.54,3918.02
64.81,4108.72
65.08,3605.97
65.35,4247.41
65.62,4108.72
65.89,4334.09
66.16,3415.26
66.43,3883.35
66.7,3831.34
66.97,3467.27
67.24,3623.3
67.51,4004.7
67.78,3536.62
68.05,3224.56
68.32,3987.37
68.59,3727.32
68.86,3640.64
69.13,3432.6
69.4,3553.96
69.67,3814
69.94,3293.91
70.21,3536.62
70.48,3311.25
70.75,3293.91
71.02,2947.18
71.29,3536.62
71.56,3189.89
71.83,3259.24
72.1,3397.93
72.37,3397.93
72.64,3259.24
72.91,3103.21
73.18,2929.85
73.45,3051.2
73.72,3207.23
73.99,3553.96
74.26,3744.66
74.53,3970.03
74.8,3449.94
75.07,3467.27
75.34,3883.35
75.61,4074.05
75.88,4559.47
76.15,5911.7
76.42,6483.8
76.69,4975.54
76.96,4282.08
77.23,3987.37
77.5,3935.36
77.77,4004.7
78.04,4056.71
78.31,3952.69
78.58,4230.07
78.85,4455.45
79.12,4108.72
79.39,3831.34
79.66,4074.05
79.93,3952.69
80.2,4091.38
80.47,4126.06
80.74,3241.9
81.01,3900.68
81.28,3536.62
81.55,4386.1
81.82,3970.03
82.09,3987.37
82.36,3657.97
82.63,3796.67
82.9,3484.61
83.17,3744.66
83.44,3709.98
83.71,3467.27
83.98,4022.04
84.25,4420.77
84.52,3970.03
84.79,3952.69
85.06,3727.32
85.33,3727.32
85.6,3363.26
85.87,3848.67
86.14,3311.25
86.41,3501.95
86.68,3640.64
86.95,3519.28
87.22,3536.62
87.49,3553.96
87.76,3293.91
88.03,3363.26
88.3,3657.97
88.57,3519.28
88.84,3449.94
89.11,3571.29
89.38,3068.54
89.65,3363.26
89.92,3866.01
90,6379.78