Folder: GlassyIonicConductorDatabase/database/experiments/HA/exp181_eis_pmps_chloranil_litfsi/eis_data

Note: README.md
# GlassyIonicConductorDatabase

- Contains daily experimental data of polymeric ionic conductors
  
  - Process (as flowchart), structure, measurements, and properties

- Data are processed by machine learning tools

# Requirements

- Check for env. yml

- This database is processed by "FlowMater", which can treat graph data.
  
  - Visit the following URL for the latest version.
  
  - https://github.com/KanHatakeyama/FlowMater2

# Related paper

- TBD

# History

- version 2022.1.18: initial version

# Author

- Kan Hatakeyama-Sato
- Waseda University
- [Kan Hatakeyama](https://kanhatakeyama.github.io/)
- [satokan@toki.waseda](mailto:satokan@toki.waseda).(japan)

File: 8.txt
File.......:  202108190859_c-274_eis_rt - AUG,19.2021

System.....:
Potential..:  -0.006V
Current....:  -54.668nA
Temperature:  -0.7 +-0.1 C
Time.......:  08:59:06 - 08:59:54
Comment....:

Impedance samples

Lines:   45
Columns: 5

Number   Frequency/Hz   impedance R/Ohm   impedance I/Ohm   Significance   Time/s
   1      1.0000e+06       3.2884e+01       -5.6704e+00        0.999           0.0
   2      7.5549e+05       3.3568e+01       -6.4248e+00        0.999           1.3
   3      5.7077e+05       3.4392e+01       -7.3193e+00        1.000           1.8
   4      4.3121e+05       3.5294e+01       -8.4950e+00        1.000           2.5
   5      3.2578e+05       3.6412e+01       -9.8936e+00        1.000           3.2
   6      2.4612e+05       3.7668e+01       -1.1544e+01        1.000           3.7
   7      1.8594e+05       3.9132e+01       -1.3558e+01        1.000           4.1
   8      1.4048e+05       4.0866e+01       -1.5993e+01        1.000           4.6
   9      1.0613e+05       4.2824e+01       -1.8925e+01        1.000           5.0
  10      8.0180e+04       4.5229e+01       -2.2504e+01        1.000           5.5
  11      6.0575e+04       4.7795e+01       -2.6828e+01        1.000           5.9
  12      4.5764e+04       5.1092e+01       -3.2087e+01        1.000           6.3
  13      3.4574e+04       5.4960e+01       -3.8561e+01        1.000           6.8
  14      2.6121e+04       6.0237e+01       -4.6506e+01        1.000           7.5
  15      1.9734e+04       6.5754e+01       -5.5779e+01        0.999           8.2
  16      1.4909e+04       7.2289e+01       -6.6950e+01        0.999           8.6
  17      1.1263e+04       8.0001e+01       -8.0570e+01        0.999           9.1
  18      8.5095e+03       8.9184e+01       -9.7105e+01        1.000           9.5
  19      6.4288e+03       1.0011e+02       -1.1738e+02        0.999          10.0
  20      4.8569e+03       1.1340e+02       -1.4206e+02        0.999          10.5
  21      3.6694e+03       1.2991e+02       -1.7200e+02        0.999          10.9
  22      2.7722e+03       1.4979e+02       -2.0858e+02        0.998          11.4
  23      2.0944e+03       1.7441e+02       -2.5287e+02        0.999          11.8
  24      1.5823e+03       2.0492e+02       -3.0638e+02        0.999          12.3
  25      1.1954e+03       2.4239e+02       -3.7071e+02        0.998          12.8
  26      9.0311e+02       2.8910e+02       -4.4768e+02        0.998          13.2
  27      6.8229e+02       3.4643e+02       -5.3948e+02        0.997          13.7
  28      5.1546e+02       4.1406e+02       -6.4337e+02        0.998          14.4
  29      3.8943e+02       5.0141e+02       -7.7072e+02        0.997          15.1
  30      2.9421e+02       6.0774e+02       -9.1938e+02        0.998          15.5
  31      2.2227e+02       7.3865e+02       -1.0921e+03        0.997          16.0
  32      1.6793e+02       8.9568e+02       -1.2917e+03        0.996          16.4
  33      1.2687e+02       1.0842e+03       -1.5210e+03        0.995          16.9
  34      9.5846e+01       1.3091e+03       -1.7851e+03        0.995          17.4
  35      7.2411e+01       1.5745e+03       -2.0843e+03        0.995          18.0
  36      5.4092e+01       1.8924e+03       -2.4430e+03        0.994          19.4
  37      3.9533e+01       2.3021e+03       -2.8897e+03        0.993          21.2
  38      2.8174e+01       2.8282e+03       -3.4610e+03        0.993          22.6
  39      1.9503e+01       3.5169e+03       -4.1965e+03        0.992          24.3
  40      1.3058e+01       4.4407e+03       -5.1718e+03        0.991          26.2
  41      8.4196e+00       5.7112e+03       -6.4814e+03        0.990          28.8
  42      5.2123e+00       7.5133e+03       -8.2834e+03        0.989          32.0
  43      3.0979e+00       1.0059e+04       -1.0699e+04        0.988          35.4
  44      1.7783e+00       1.3708e+04       -1.4004e+04        0.988          40.3
  45      1.0000e+00       1.8663e+04       -1.8227e+04        0.986          44.9

File: 10.txt
File.......:  202108190901_c-275_eis_rt - AUG,19.2021

System.....:
Potential..:  0.018V
Current....:  -28.546nA
Temperature:  -0.7 +-0.2 C
Time.......:  09:01:59 - 09:02:47
Comment....:

Impedance samples

Lines:   45
Columns: 5

Number   Frequency/Hz   impedance R/Ohm   impedance I/Ohm   Significance   Time/s
   1      1.0000e+06       3.9332e+01       -4.7397e+02        0.993           0.0
   2      7.5549e+05       6.0696e+01       -6.2682e+02        0.996           1.5
   3      5.7077e+05       5.6406e+01       -7.9992e+02        0.997           2.1
   4      4.3121e+05       1.2875e+02       -1.0435e+03        0.997           3.0
   5      3.2578e+05       1.8065e+02       -1.3532e+03        0.997           4.0
   6      2.4612e+05       2.5392e+02       -1.7588e+03        0.997           4.4
   7      1.8594e+05       3.4975e+02       -2.2678e+03        0.998           4.8
   8      1.4048e+05       5.0387e+02       -2.9401e+03        0.998           5.3
   9      1.0613e+05       7.3630e+02       -3.8059e+03        0.998           5.7
  10      8.0180e+04       1.0960e+03       -4.9100e+03        0.998           6.2
  11      6.0575e+04       1.6398e+03       -6.2774e+03        0.998           6.6
  12      4.5764e+04       2.4797e+03       -7.9306e+03        0.999           7.1
  13      3.4574e+04       3.8048e+03       -9.9177e+03        0.999           7.8
  14      2.6121e+04       5.7031e+03       -1.2133e+04        0.999           8.5
  15      1.9734e+04       8.3738e+03       -1.4381e+04        0.998           8.9
  16      1.4909e+04       1.1885e+04       -1.6388e+04        0.999           9.4
  17      1.1263e+04       1.6095e+04       -1.7691e+04        0.999           9.8
  18      8.5095e+03       2.0655e+04       -1.8073e+04        0.999          10.3
  19      6.4288e+03       2.5020e+04       -1.7532e+04        0.999          10.7
  20      4.8569e+03       2.8857e+04       -1.6208e+04        0.999          11.2
  21      3.6694e+03       3.2054e+04       -1.4558e+04        0.999          11.6
  22      2.7722e+03       3.4504e+04       -1.2911e+04        0.999          12.1
  23      2.0944e+03       3.6414e+04       -1.1458e+04        0.999          12.6
  24      1.5823e+03       3.7933e+04       -1.0265e+04        1.000          13.0
  25      1.1954e+03       3.9209e+04       -9.4239e+03        1.000          13.5
  26      9.0311e+02       4.0357e+04       -8.8698e+03        1.000          13.9
  27      6.8229e+02       4.1456e+04       -8.6127e+03        1.000          14.4
  28      5.1546e+02       4.2564e+04       -8.6086e+03        1.000          14.9
  29      3.8943e+02       4.3764e+04       -8.7964e+03        1.000          15.3
  30      2.9421e+02       4.5038e+04       -9.1977e+03        1.000          15.8
  31      2.2227e+02       4.6453e+04       -9.7495e+03        1.000          16.2
  32      1.6793e+02       4.7996e+04       -1.0453e+04        1.000          16.7
  33      1.2687e+02       4.9714e+04       -1.1305e+04        1.000          17.2
  34      9.5846e+01       5.1643e+04       -1.2282e+04        1.000          17.7
  35      7.2411e+01       5.3792e+04       -1.3286e+04        1.000          18.3
  36      5.4092e+01       5.6391e+04       -1.4607e+04        1.000          19.7
  37      3.9533e+01       5.9112e+04       -1.5850e+04        1.000          21.4
  38      2.8174e+01       6.2650e+04       -1.7335e+04        0.999          22.8
  39      1.9503e+01       6.6837e+04       -1.8941e+04        1.000          24.4
  40      1.3058e+01       7.1791e+04       -2.0698e+04        1.000          26.7
  41      8.4196e+00       7.7693e+04       -2.2658e+04        0.999          29.3
  42      5.2123e+00       8.4704e+04       -2.4912e+04        0.999          31.9
  43      3.0979e+00       9.3041e+04       -2.7576e+04        0.999          35.2
  44      1.7783e+00       1.0276e+05       -3.0878e+04        0.999          40.2
  45      1.0000e+00       1.1390e+05       -3.5020e+04        0.999          44.7