Folder: GlassyIonicConductorDatabase/database/experiments/MU/normal/1002(831)_ppo_chloranil_liftfsi/eis_data

Note: README.md
# GlassyIonicConductorDatabase

- Contains daily experimental data of polymeric ionic conductors
  
  - Process (as flowchart), structure, measurements, and properties

- Data are processed by machine learning tools

# Requirements

- Check for env. yml

- This database is processed by "FlowMater", which can treat graph data.
  
  - Visit the following URL for the latest version.
  
  - https://github.com/KanHatakeyama/FlowMater2

# Related paper

- TBD

# History

- version 2022.1.18: initial version

# Author

- Kan Hatakeyama-Sato
- Waseda University
- [Kan Hatakeyama](https://kanhatakeyama.github.io/)
- [satokan@toki.waseda](mailto:satokan@toki.waseda).(japan)

File: 4.txt
File.......:  cell4ppochloranilliftfsi - OCT,04.2021

System.....:
Potential..:  0.021V
Current....:  -30.465nA
Temperature:  -0.7 +-0.1 C
Time.......:  09:48:02 - 09:48:48
Comment....:

Impedance samples

Lines:   45
Columns: 5

Number   Frequency/Hz   impedance R/Ohm   impedance I/Ohm   Significance   Time/s
   1      1.0000e+06       1.9128e+02       -4.7747e+01        0.999           0.0
   2      7.5549e+05       1.9538e+02       -3.7341e+01        0.999           1.0
   3      5.7077e+05       1.9821e+02       -2.9793e+01        1.000           1.5
   4      4.3121e+05       1.9931e+02       -2.3673e+01        1.000           2.3
   5      3.2578e+05       2.0055e+02       -1.9497e+01        1.000           3.0
   6      2.4612e+05       2.0140e+02       -1.6588e+01        1.000           3.4
   7      1.8594e+05       2.0218e+02       -1.4723e+01        1.000           3.8
   8      1.4048e+05       2.0308e+02       -1.3785e+01        1.000           4.3
   9      1.0613e+05       2.0378e+02       -1.3641e+01        1.000           4.8
  10      8.0180e+04       2.0473e+02       -1.4265e+01        1.000           5.2
  11      6.0575e+04       2.0559e+02       -1.5923e+01        1.000           5.7
  12      4.5764e+04       2.0687e+02       -1.8226e+01        1.000           6.1
  13      3.4574e+04       2.0840e+02       -2.1534e+01        1.000           6.6
  14      2.6121e+04       2.1018e+02       -2.5744e+01        1.000           7.0
  15      1.9734e+04       2.1241e+02       -3.1281e+01        1.000           7.5
  16      1.4909e+04       2.1517e+02       -3.8351e+01        1.000           7.9
  17      1.1263e+04       2.1866e+02       -4.7282e+01        1.000           8.4
  18      8.5095e+03       2.2280e+02       -5.8488e+01        1.000           8.8
  19      6.4288e+03       2.2801e+02       -7.2606e+01        1.000           9.3
  20      4.8569e+03       2.3452e+02       -9.0053e+01        1.000           9.8
  21      3.6694e+03       2.4289e+02       -1.1140e+02        1.000          10.2
  22      2.7722e+03       2.5304e+02       -1.3840e+02        0.999          10.6
  23      2.0944e+03       2.6577e+02       -1.7186e+02        1.000          11.1
  24      1.5823e+03       2.8179e+02       -2.1336e+02        0.999          11.6
  25      1.1954e+03       3.0167e+02       -2.6497e+02        1.000          12.0
  26      9.0311e+02       3.2690e+02       -3.2883e+02        0.999          12.5
  27      6.8229e+02       3.5865e+02       -4.0797e+02        0.999          12.9
  28      5.1546e+02       3.9881e+02       -5.0572e+02        0.999          13.4
  29      3.8943e+02       4.4685e+02       -6.2115e+02        0.998          14.1
  30      2.9421e+02       5.1113e+02       -7.6701e+02        0.999          14.8
  31      2.2227e+02       5.9332e+02       -9.4472e+02        0.999          15.3
  32      1.6793e+02       6.9510e+02       -1.1609e+03        0.999          15.7
  33      1.2687e+02       8.2167e+02       -1.4233e+03        0.999          16.2
  34      9.5846e+01       9.7884e+02       -1.7422e+03        0.999          16.7
  35      7.2411e+01       1.1724e+03       -2.1275e+03        0.999          17.3
  36      5.4092e+01       1.4151e+03       -2.6153e+03        0.999          18.7
  37      3.9533e+01       1.7457e+03       -3.2630e+03        0.999          20.5
  38      2.8174e+01       2.1979e+03       -4.1412e+03        0.999          21.9
  39      1.9503e+01       2.8332e+03       -5.3550e+03        0.999          23.5
  40      1.3058e+01       3.7473e+03       -7.0711e+03        0.999          25.9
  41      8.4196e+00       5.1156e+03       -9.5725e+03        0.999          28.6
  42      5.2123e+00       7.2209e+03       -1.3297e+04        0.999          31.2
  43      3.0979e+00       1.0524e+04       -1.8873e+04        0.999          34.6
  44      1.7783e+00       1.5808e+04       -2.7286e+04        0.998          39.6
  45      1.0000e+00       2.3899e+04       -3.9416e+04        0.997          44.2

File: 10.txt
File.......:  cell10ppochloranilliftfsi - OCT,04.2021

System.....:
Potential..:  0.013V
Current....:  -82.106nA
Temperature:  -0.7 +-0.0 C
Time.......:  09:49:27 - 09:50:15
Comment....:

Impedance samples

Lines:   45
Columns: 5

Number   Frequency/Hz   impedance R/Ohm   impedance I/Ohm   Significance   Time/s
   1      1.0000e+06       2.6462e+01        4.7124e-01        0.999           0.0
   2      7.5549e+05       2.6789e+01        1.8419e-01        0.999           1.3
   3      5.7077e+05       2.6347e+01       -4.6889e-02        1.000           1.8
   4      4.3121e+05       2.6034e+01       -2.7912e-01        1.000           2.5
   5      3.2578e+05       2.6458e+01       -5.4095e-01        1.000           3.2
   6      2.4612e+05       2.6517e+01       -8.1020e-01        1.000           3.7
   7      1.8594e+05       2.6895e+01       -1.1282e+00        1.000           4.1
   8      1.4048e+05       2.6770e+01       -1.4950e+00        1.000           4.6
   9      1.0613e+05       2.6700e+01       -1.9530e+00        1.000           5.0
  10      8.0180e+04       2.7196e+01       -2.5068e+00        1.000           5.5
  11      6.0575e+04       2.7260e+01       -3.2503e+00        1.000           5.9
  12      4.5764e+04       2.7178e+01       -4.1350e+00        1.000           6.3
  13      3.4574e+04       2.7291e+01       -5.2758e+00        1.000           6.8
  14      2.6121e+04       2.8019e+01       -6.6687e+00        1.000           7.3
  15      1.9734e+04       2.8626e+01       -8.4378e+00        1.000           7.7
  16      1.4909e+04       2.8780e+01       -1.0665e+01        1.000           8.2
  17      1.1263e+04       2.8906e+01       -1.3473e+01        1.000           8.6
  18      8.5095e+03       2.9784e+01       -1.6993e+01        0.999           9.1
  19      6.4288e+03       3.0843e+01       -2.1461e+01        1.000           9.6
  20      4.8569e+03       3.2099e+01       -2.7080e+01        1.000          10.0
  21      3.6694e+03       3.4199e+01       -3.4152e+01        1.000          10.5
  22      2.7722e+03       3.6840e+01       -4.3179e+01        0.999          10.9
  23      2.0944e+03       4.0098e+01       -5.4614e+01        0.998          11.4
  24      1.5823e+03       4.4016e+01       -6.9819e+01        0.999          12.1
  25      1.1954e+03       4.8293e+01       -8.8499e+01        0.998          12.8
  26      9.0311e+02       5.4809e+01       -1.1223e+02        0.999          13.2
  27      6.8229e+02       6.3155e+01       -1.4233e+02        0.999          13.7
  28      5.1546e+02       7.4054e+01       -1.8040e+02        0.998          14.1
  29      3.8943e+02       8.8481e+01       -2.2846e+02        0.998          14.6
  30      2.9421e+02       1.0782e+02       -2.8868e+02        0.997          15.1
  31      2.2227e+02       1.3461e+02       -3.6389e+02        0.998          15.5
  32      1.6793e+02       1.6785e+02       -4.5728e+02        0.997          16.0
  33      1.2687e+02       2.1427e+02       -5.7251e+02        0.997          16.4
  34      9.5846e+01       2.7221e+02       -7.0796e+02        0.997          17.2
  35      7.2411e+01       3.5120e+02       -8.7749e+02        0.997          18.0
  36      5.4092e+01       4.5852e+02       -1.0910e+03        0.997          19.5
  37      3.9533e+01       6.1248e+02       -1.3687e+03        0.997          21.2
  38      2.8174e+01       8.3371e+02       -1.7326e+03        0.997          22.8
  39      1.9503e+01       1.1527e+03       -2.2115e+03        0.997          24.4
  40      1.3058e+01       1.6129e+03       -2.8490e+03        0.998          26.3
  41      8.4196e+00       2.2784e+03       -3.7119e+03        0.998          28.5
  42      5.2123e+00       3.2405e+03       -4.9088e+03        0.998          31.2
  43      3.0979e+00       4.6252e+03       -6.5876e+03        0.998          35.3
  44      1.7783e+00       6.6516e+03       -9.0063e+03        0.998          40.9
  45      1.0000e+00       9.5139e+03       -1.2392e+04        0.997          45.6