Folder: GlassyIonicConductorDatabase/program/database/experiments/HA/exp165_eis_s86_pmps_chloranil_litfsi/eis_data

Note: README.md
# GlassyIonicConductorDatabase

- Contains daily experimental data of polymeric ionic conductors
  
  - Process (as flowchart), structure, measurements, and properties

- Data are processed by machine learning tools

# Requirements

- Check for env. yml

- This database is processed by "FlowMater", which can treat graph data.
  
  - Visit the following URL for the latest version.
  
  - https://github.com/KanHatakeyama/FlowMater2

# Related paper

- TBD

# History

- version 2022.1.18: initial version

# Author

- Kan Hatakeyama-Sato
- Waseda University
- [Kan Hatakeyama](https://kanhatakeyama.github.io/)
- [satokan@toki.waseda](mailto:satokan@toki.waseda).(japan)

File: 5.txt
File.......:  202108100853_c-240_eis_rt - AUG,10.2021

System.....:
Potential..:  -0.013V
Current....:  -139.63pA
Temperature:  -0.7 +-0.1 C
Time.......:  08:53:05 - 08:53:53
Comment....:

Impedance samples

Lines:   45
Columns: 5

Number   Frequency/Hz   impedance R/Ohm   impedance I/Ohm   Significance   Time/s
   1      1.0000e+06      -9.1172e+00       -7.0367e+02        0.994           0.0
   2      7.5549e+05      -7.1307e+00       -9.4513e+02        0.998           1.8
   3      5.7077e+05      -3.6434e+01       -1.2454e+03        0.992           2.3
   4      4.3121e+05       5.2252e+01       -1.6218e+03        0.997           3.3
   5      3.2578e+05       7.3501e+01       -2.1212e+03        0.997           4.2
   6      2.4612e+05       1.1729e+02       -2.7895e+03        0.998           4.7
   7      1.8594e+05       1.3349e+02       -3.6513e+03        0.999           5.1
   8      1.4048e+05       2.2795e+02       -4.8261e+03        0.996           5.5
   9      1.0613e+05       2.6162e+02       -6.2971e+03        0.998           6.0
  10      8.0180e+04       3.6328e+02       -8.2954e+03        0.997           6.4
  11      6.0575e+04       5.9072e+02       -1.0881e+04        0.998           7.1
  12      4.5764e+04       7.2778e+02       -1.4306e+04        0.998           7.8
  13      3.4574e+04       9.2321e+02       -1.8791e+04        0.998           8.2
  14      2.6121e+04       1.1826e+03       -2.4694e+04        0.998           8.7
  15      1.9734e+04       1.5577e+03       -3.2471e+04        0.998           9.2
  16      1.4909e+04       1.9774e+03       -4.2635e+04        0.998           9.6
  17      1.1263e+04       2.7637e+03       -5.6148e+04        0.997          10.0
  18      8.5095e+03       3.8279e+03       -7.3842e+04        0.998          10.5
  19      6.4288e+03       5.1257e+03       -9.7001e+04        0.996          11.0
  20      4.8569e+03       8.4857e+03       -1.2774e+05        0.998          11.7
  21      3.6694e+03       1.2242e+04       -1.6783e+05        0.999          12.4
  22      2.7722e+03       1.7335e+04       -2.2049e+05        0.998          12.8
  23      2.0944e+03       2.5615e+04       -2.8915e+05        0.998          13.3
  24      1.5823e+03       3.8887e+04       -3.7938e+05        0.999          13.7
  25      1.1954e+03       5.9203e+04       -4.9673e+05        0.998          14.2
  26      9.0311e+02       9.4001e+04       -6.4884e+05        0.999          14.7
  27      6.8229e+02       1.4889e+05       -8.4396e+05        0.999          15.1
  28      5.1546e+02       2.5528e+05       -1.0911e+06        0.999          15.8
  29      3.8943e+02       3.9734e+05       -1.3934e+06        0.998          16.5
  30      2.9421e+02       6.2169e+05       -1.7614e+06        0.999          17.0
  31      2.2227e+02       9.3415e+05       -2.1430e+06        0.998          17.4
  32      1.6793e+02       1.4807e+06       -2.5697e+06        0.996          17.9
  33      1.2687e+02       2.1418e+06       -2.9097e+06        0.992          18.3
  34      9.5846e+01       2.8316e+06       -2.9714e+06        0.994          18.9
  35      7.2411e+01       3.6522e+06       -2.9488e+06        0.996          19.4
  36      5.4092e+01       3.7005e+06       -1.9389e+06        0.995          20.8
  37      3.9533e+01       4.8893e+06       -2.5523e+06        0.991          22.7
  38      2.8174e+01       5.7439e+06       -1.8681e+06        0.948          24.1
  39      1.9503e+01       6.1016e+06       -1.5291e+06        0.974          25.7
  40      1.3058e+01       6.4472e+06       -1.2200e+06        0.991          27.5
  41      8.4196e+00       6.5276e+06       -9.5206e+05        0.975          29.7
  42      5.2123e+00       6.6849e+06       -7.2614e+05        0.995          32.3
  43      3.0979e+00       6.8011e+06       -6.0606e+05        1.000          35.6
  44      1.7783e+00       6.9091e+06       -5.8305e+05        1.000          40.6
  45      1.0000e+00       7.0417e+06       -6.5922e+05        0.999          45.1

File: 6.txt
File.......:  202108100856_c-241_eis_rt - AUG,10.2021

System.....:
Potential..:  0.018V
Current....:  -75.511pA
Temperature:  -0.7 +-0.1 C
Time.......:  08:56:57 - 08:57:47
Comment....:

Impedance samples

Lines:   45
Columns: 5

Number   Frequency/Hz   impedance R/Ohm   impedance I/Ohm   Significance   Time/s
   1      1.0000e+06      -9.2260e+00       -6.8147e+02        0.996           0.0
   2      7.5549e+05       8.7398e+00       -8.9109e+02        0.996           1.8
   3      5.7077e+05      -2.0749e+01       -1.1814e+03        0.991           2.3
   4      4.3121e+05       4.8293e+01       -1.5436e+03        0.997           3.3
   5      3.2578e+05       7.0015e+01       -2.0322e+03        0.998           4.2
   6      2.4612e+05       9.1766e+01       -2.6678e+03        0.997           4.7
   7      1.8594e+05       1.0500e+02       -3.4802e+03        0.997           5.1
   8      1.4048e+05       1.8461e+02       -4.6175e+03        0.998           5.5
   9      1.0613e+05       2.2769e+02       -6.0332e+03        0.998           6.0
  10      8.0180e+04       3.0416e+02       -7.9471e+03        0.997           6.4
  11      6.0575e+04       4.9058e+02       -1.0428e+04        0.999           7.1
  12      4.5764e+04       6.1388e+02       -1.3702e+04        0.998           7.8
  13      3.4574e+04       7.2568e+02       -1.8008e+04        0.998           8.2
  14      2.6121e+04       8.9978e+02       -2.3695e+04        0.999           8.7
  15      1.9734e+04       1.1427e+03       -3.1189e+04        1.000           9.2
  16      1.4909e+04       1.3955e+03       -4.1041e+04        0.999           9.6
  17      1.1263e+04       1.7274e+03       -5.4007e+04        0.999          10.0
  18      8.5095e+03       2.1856e+03       -7.1214e+04        0.998          10.5
  19      6.4288e+03       3.9982e+03       -9.4044e+04        0.998          11.2
  20      4.8569e+03       4.6854e+03       -1.2380e+05        0.997          11.9
  21      3.6694e+03       5.9434e+03       -1.6320e+05        0.998          12.4
  22      2.7722e+03       7.3671e+03       -2.1505e+05        0.999          12.8
  23      2.0944e+03       9.2390e+03       -2.8351e+05        0.997          13.3
  24      1.5823e+03       1.2396e+04       -3.7378e+05        0.997          13.7
  25      1.1954e+03       1.6509e+04       -4.9282e+05        0.998          14.2
  26      9.0311e+02       2.2558e+04       -6.4993e+05        0.997          14.7
  27      6.8229e+02       3.1235e+04       -8.5656e+05        0.999          15.1
  28      5.1546e+02       6.1272e+04       -1.1305e+06        0.999          15.8
  29      3.8943e+02       8.1358e+04       -1.4846e+06        0.998          16.5
  30      2.9421e+02       1.0523e+05       -1.9645e+06        0.999          17.0
  31      2.2227e+02       1.3412e+05       -2.5196e+06        0.994          17.4
  32      1.6793e+02       2.5469e+05       -3.3876e+06        0.991          17.9
  33      1.2687e+02       3.9348e+05       -4.4694e+06        0.994          18.3
  34      9.5846e+01       4.9890e+05       -6.2117e+06        0.994          18.9
  35      7.2411e+01       9.0629e+05       -7.9641e+06        0.997          19.5
  36      5.4092e+01      -1.1516e+06       -2.3645e+07        0.959          20.9
  37      3.9533e+01       8.5473e+05       -1.4622e+07        0.974          22.7
  38      2.8174e+01       2.6198e+06       -1.6774e+07        0.885          24.2
  39      1.9503e+01       5.5636e+06       -2.4392e+07        0.901          25.8
  40      1.3058e+01       1.3088e+07       -3.2687e+07        0.950          27.7
  41      8.4196e+00       2.3223e+07       -4.7648e+07        0.840          29.9
  42      5.2123e+00       3.5924e+07       -6.1988e+07        0.931          32.6
  43      3.0979e+00       6.8348e+07       -6.8405e+07        0.995          36.7
  44      1.7783e+00       1.0006e+08       -6.9491e+07        0.993          42.4
  45      1.0000e+00       1.2846e+08       -6.7552e+07        0.971          46.9

File: 7.txt
File.......:  202108100901_c-242_eis_rt - AUG,10.2021

System.....:
Potential..:  0.151V
Current....:  -17.659pA
Temperature:  -0.7 +-0.2 C
Time.......:  09:01:30 - 09:02:19
Comment....:

Impedance samples

Lines:   45
Columns: 5

Number   Frequency/Hz   impedance R/Ohm   impedance I/Ohm   Significance   Time/s
   1      1.0000e+06      -8.1762e+00       -7.2554e+02        0.998           0.0
   2      7.5549e+05      -8.2253e+00       -9.8083e+02        0.991           1.8
   3      5.7077e+05      -2.6613e+01       -1.2833e+03        0.992           2.3
   4      4.3121e+05       5.1766e+01       -1.6788e+03        0.997           3.3
   5      3.2578e+05       7.7169e+01       -2.2031e+03        0.998           4.2
   6      2.4612e+05       1.1373e+02       -2.8915e+03        0.998           4.6
   7      1.8594e+05       1.5101e+02       -3.7965e+03        0.998           5.0
   8      1.4048e+05       2.1115e+02       -4.9838e+03        0.998           5.5
   9      1.0613e+05       2.5915e+02       -6.5457e+03        0.998           5.9
  10      8.0180e+04       4.6716e+02       -8.6330e+03        0.998           6.6
  11      6.0575e+04       5.6308e+02       -1.1306e+04        0.998           7.2
  12      4.5764e+04       6.8258e+02       -1.4853e+04        0.998           7.6
  13      3.4574e+04       8.1564e+02       -1.9534e+04        0.998           8.1
  14      2.6121e+04       1.0140e+03       -2.5665e+04        0.998           8.5
  15      1.9734e+04       1.2709e+03       -3.3790e+04        0.999           8.9
  16      1.4909e+04       1.5379e+03       -4.4441e+04        0.999           9.4
  17      1.1263e+04       1.9155e+03       -5.8554e+04        0.998           9.8
  18      8.5095e+03       2.3230e+03       -7.7078e+04        0.997          10.3
  19      6.4288e+03       4.3025e+03       -1.0180e+05        1.000          10.9
  20      4.8569e+03       5.0589e+03       -1.3398e+05        0.997          11.6
  21      3.6694e+03       6.2546e+03       -1.7660e+05        0.999          12.0
  22      2.7722e+03       7.5858e+03       -2.3262e+05        0.997          12.5
  23      2.0944e+03       9.4507e+03       -3.0667e+05        0.999          12.9
  24      1.5823e+03       1.1986e+04       -4.0438e+05        0.999          13.4
  25      1.1954e+03       1.5192e+04       -5.3312e+05        0.998          13.8
  26      9.0311e+02       1.9600e+04       -7.0287e+05        0.998          14.2
  27      6.8229e+02       4.5950e+04       -9.2932e+05        0.998          14.9
  28      5.1546e+02       5.4879e+04       -1.2230e+06        0.998          15.6
  29      3.8943e+02       7.0047e+04       -1.6098e+06        0.998          16.0
  30      2.9421e+02       8.8277e+04       -2.1193e+06        0.997          16.5
  31      2.2227e+02       1.3271e+05       -2.7976e+06        0.998          16.9
  32      1.6793e+02       1.5824e+05       -3.6761e+06        0.998          17.3
  33      1.2687e+02       2.1110e+05       -4.8380e+06        0.998          17.8
  34      9.5846e+01       3.5860e+05       -6.3334e+06        0.998          18.4
  35      7.2411e+01       5.3368e+05       -8.3279e+06        0.999          19.2
  36      5.4092e+01      -1.5612e+05       -1.0308e+07        0.998          20.8
  37      3.9533e+01       9.0279e+05       -1.5353e+07        0.994          22.6
  38      2.8174e+01       1.3853e+06       -2.0736e+07        0.968          24.0
  39      1.9503e+01       2.1031e+06       -2.9881e+07        0.976          25.6
  40      1.3058e+01       5.2301e+06       -4.3672e+07        0.987          27.5
  41      8.4196e+00       8.1143e+06       -6.4136e+07        0.961          29.6
  42      5.2123e+00       1.7884e+07       -1.0031e+08        0.986          32.3
  43      3.0979e+00       3.7404e+07       -1.5878e+08        0.998          35.6
  44      1.7783e+00       8.0234e+07       -2.5169e+08        0.997          40.6
  45      1.0000e+00       1.6647e+08       -3.8655e+08        0.987          45.2