Folder: GlassyIonicConductorDatabase/database/experiments/MU/normal/1102(1020)_bq_eis_longer_ball/80_anneal/eis_data

Note: README.md
# GlassyIonicConductorDatabase

- Contains daily experimental data of polymeric ionic conductors
  
  - Process (as flowchart), structure, measurements, and properties

- Data are processed by machine learning tools

# Requirements

- Check for env. yml

- This database is processed by "FlowMater", which can treat graph data.
  
  - Visit the following URL for the latest version.
  
  - https://github.com/KanHatakeyama/FlowMater2

# Related paper

- TBD

# History

- version 2022.1.18: initial version

# Author

- Kan Hatakeyama-Sato
- Waseda University
- [Kan Hatakeyama](https://kanhatakeyama.github.io/)
- [satokan@toki.waseda](mailto:satokan@toki.waseda).(japan)

File: 2.txt
File.......:  cell2ppobqliftfsi40wt - NOV,03.2021

System.....:
Potential..:  0.043V
Current....:  -10.556nA
Temperature:  -0.7 +-0.1 C
Time.......:  15:51:21 - 15:52:11
Comment....:

              Main
time.......:  22680 s
Impedance samples

Lines:   45
Columns: 5

Number   Frequency/Hz   impedance R/Ohm   impedance I/Ohm   Significance   Time/s
   1      1.0000e+06       2.8412e+02       -7.4685e+02        0.998           0.0
   2      7.5549e+05       4.4829e+02       -8.9048e+02        0.998           1.3
   3      5.7077e+05       6.5368e+02       -1.0652e+03        0.995           1.8
   4      4.3121e+05       9.3467e+02       -1.1126e+03        0.998           2.8
   5      3.2578e+05       1.2306e+03       -1.1511e+03        0.997           3.7
   6      2.4612e+05       1.5246e+03       -1.1311e+03        1.000           4.2
   7      1.8594e+05       1.7801e+03       -1.0548e+03        0.998           4.6
   8      1.4048e+05       2.0098e+03       -9.2348e+02        0.998           5.1
   9      1.0613e+05       2.1827e+03       -8.0370e+02        0.999           5.6
  10      8.0180e+04       2.3057e+03       -6.7457e+02        1.000           6.0
  11      6.0575e+04       2.3955e+03       -5.6274e+02        1.000           6.5
  12      4.5764e+04       2.4595e+03       -4.6577e+02        1.000           6.9
  13      3.4574e+04       2.5083e+03       -3.9215e+02        1.000           7.4
  14      2.6121e+04       2.5440e+03       -3.3573e+02        1.000           7.9
  15      1.9734e+04       2.5732e+03       -2.9438e+02        1.000           8.3
  16      1.4909e+04       2.5978e+03       -2.6823e+02        1.000           8.8
  17      1.1263e+04       2.6224e+03       -2.5401e+02        1.000           9.2
  18      8.5095e+03       2.6450e+03       -2.5301e+02        1.000           9.7
  19      6.4288e+03       2.6698e+03       -2.6262e+02        1.000          10.2
  20      4.8569e+03       2.6973e+03       -2.8196e+02        1.000          10.7
  21      3.6694e+03       2.7289e+03       -3.0811e+02        1.000          11.1
  22      2.7722e+03       2.7640e+03       -3.4929e+02        1.000          11.6
  23      2.0944e+03       2.8050e+03       -4.0190e+02        1.000          12.1
  24      1.5823e+03       2.8529e+03       -4.6760e+02        1.000          12.6
  25      1.1954e+03       2.9087e+03       -5.5056e+02        1.000          13.0
  26      9.0311e+02       2.9739e+03       -6.5136e+02        1.000          13.5
  27      6.8229e+02       3.0501e+03       -7.7483e+02        1.000          14.0
  28      5.1546e+02       3.1394e+03       -9.2582e+02        1.000          14.4
  29      3.8943e+02       3.2462e+03       -1.1074e+03        1.000          14.9
  30      2.9421e+02       3.3695e+03       -1.3329e+03        1.000          15.4
  31      2.2227e+02       3.5168e+03       -1.6066e+03        1.000          15.9
  32      1.6793e+02       3.6886e+03       -1.9462e+03        1.000          16.3
  33      1.2687e+02       3.8942e+03       -2.3653e+03        1.000          16.8
  34      9.5846e+01       4.1444e+03       -2.8827e+03        0.999          17.3
  35      7.2411e+01       4.4500e+03       -3.5201e+03        0.999          17.9
  36      5.4092e+01       4.8198e+03       -4.3512e+03        0.999          19.3
  37      3.9533e+01       5.3329e+03       -5.4543e+03        0.999          21.5
  38      2.8174e+01       6.0633e+03       -6.9768e+03        0.999          23.3
  39      1.9503e+01       7.1506e+03       -9.1037e+03        0.999          24.9
  40      1.3058e+01       8.7507e+03       -1.2126e+04        0.999          26.8
  41      8.4196e+00       1.1257e+04       -1.6471e+04        0.999          29.0
  42      5.2123e+00       1.5226e+04       -2.2757e+04        0.999          31.6
  43      3.0979e+00       2.1480e+04       -3.1834e+04        0.999          35.0
  44      1.7783e+00       3.1398e+04       -4.4734e+04        0.999          40.0
  45      1.0000e+00       4.6168e+04       -6.2434e+04        0.999          47.0

File: 3.txt
File.......:  cell3ppobqliftfsi40wt - NOV,03.2021

System.....:
Potential..:  0.040V
Current....:  -4.1781nA
Temperature:  -0.7 +-0.1 C
Time.......:  15:52:54 - 15:53:42
Comment....:

              Main
time.......:  22680 s
Impedance samples

Lines:   45
Columns: 5

Number   Frequency/Hz   impedance R/Ohm   impedance I/Ohm   Significance   Time/s
   1      1.0000e+06       3.1227e+02       -7.1082e+02        0.998           0.0
   2      7.5549e+05       4.9555e+02       -8.5346e+02        0.996           1.3
   3      5.7077e+05       6.8758e+02       -9.7848e+02        0.997           1.8
   4      4.3121e+05       9.6283e+02       -9.8369e+02        0.999           2.8
   5      3.2578e+05       1.2147e+03       -9.7793e+02        0.999           3.7
   6      2.4612e+05       1.4432e+03       -9.1592e+02        0.998           4.2
   7      1.8594e+05       1.6519e+03       -8.2913e+02        0.999           4.6
   8      1.4048e+05       1.8041e+03       -7.1311e+02        0.999           5.1
   9      1.0613e+05       1.9143e+03       -6.0318e+02        1.000           5.6
  10      8.0180e+04       1.9933e+03       -5.0176e+02        1.000           6.0
  11      6.0575e+04       2.0499e+03       -4.1738e+02        1.000           6.5
  12      4.5764e+04       2.0901e+03       -3.4954e+02        1.000           6.9
  13      3.4574e+04       2.1240e+03       -3.0139e+02        1.000           7.4
  14      2.6121e+04       2.1484e+03       -2.6764e+02        1.000           7.9
  15      1.9734e+04       2.1666e+03       -2.4873e+02        1.000           8.3
  16      1.4909e+04       2.1837e+03       -2.4393e+02        1.000           8.8
  17      1.1263e+04       2.2032e+03       -2.5249e+02        1.000           9.2
  18      8.5095e+03       2.2196e+03       -2.7443e+02        1.000           9.7
  19      6.4288e+03       2.2414e+03       -3.1070e+02        1.000          10.2
  20      4.8569e+03       2.2670e+03       -3.6152e+02        1.000          10.7
  21      3.6694e+03       2.3028e+03       -4.2675e+02        1.000          11.1
  22      2.7722e+03       2.3441e+03       -5.1556e+02        1.000          11.6
  23      2.0944e+03       2.3887e+03       -6.2746e+02        1.000          12.1
  24      1.5823e+03       2.4451e+03       -7.6772e+02        1.000          12.6
  25      1.1954e+03       2.5171e+03       -9.4437e+02        1.000          13.0
  26      9.0311e+02       2.6083e+03       -1.1621e+03        1.000          13.5
  27      6.8229e+02       2.7195e+03       -1.4326e+03        0.999          14.0
  28      5.1546e+02       2.8586e+03       -1.7662e+03        0.999          14.4
  29      3.8943e+02       3.0328e+03       -2.1770e+03        1.000          14.9
  30      2.9421e+02       3.2427e+03       -2.6869e+03        1.000          15.4
  31      2.2227e+02       3.5046e+03       -3.3157e+03        0.999          15.9
  32      1.6793e+02       3.8207e+03       -4.0986e+03        0.999          16.3
  33      1.2687e+02       4.2125e+03       -5.0712e+03        0.999          16.8
  34      9.5846e+01       4.6972e+03       -6.2702e+03        0.999          17.6
  35      7.2411e+01       5.3144e+03       -7.7627e+03        0.999          18.4
  36      5.4092e+01       6.1039e+03       -9.6851e+03        0.999          19.8
  37      3.9533e+01       7.2411e+03       -1.2284e+04        0.999          21.6
  38      2.8174e+01       8.8766e+03       -1.5833e+04        0.999          23.0
  39      1.9503e+01       1.1291e+04       -2.0754e+04        0.999          24.6
  40      1.3058e+01       1.4936e+04       -2.7695e+04        0.999          26.6
  41      8.4196e+00       2.0566e+04       -3.7636e+04        0.999          28.7
  42      5.2123e+00       2.9329e+04       -5.2035e+04        0.999          31.5
  43      3.0979e+00       4.2864e+04       -7.3067e+04        0.999          35.5
  44      1.7783e+00       6.3687e+04       -1.0404e+05        0.999          41.2
  45      1.0000e+00       9.4478e+04       -1.4903e+05        0.999          45.9

File: 4.txt
File.......:  cell4ppobqliftfsi40wt - NOV,03.2021

System.....:
Potential..:  0.047V
Current....:  -5.8897nA
Temperature:  -0.7 +-0.1 C
Time.......:  15:54:27 - 15:55:15
Comment....:

              Main
time.......:  22680 s
Impedance samples

Lines:   45
Columns: 5

Number   Frequency/Hz   impedance R/Ohm   impedance I/Ohm   Significance   Time/s
   1      1.0000e+06       2.7830e+02       -8.1161e+02        0.998           0.0
   2      7.5549e+05       4.3729e+02       -1.0014e+03        0.997           1.3
   3      5.7077e+05       6.3152e+02       -1.1847e+03        0.997           1.8
   4      4.3121e+05       9.4620e+02       -1.3036e+03        0.999           2.8
   5      3.2578e+05       1.2768e+03       -1.3939e+03        0.998           3.7
   6      2.4612e+05       1.6471e+03       -1.4077e+03        0.999           4.2
   7      1.8594e+05       1.9802e+03       -1.3608e+03        0.999           4.6
   8      1.4048e+05       2.2855e+03       -1.2433e+03        0.999           5.1
   9      1.0613e+05       2.5310e+03       -1.1033e+03        0.999           5.6
  10      8.0180e+04       2.7254e+03       -9.5565e+02        0.999           6.0
  11      6.0575e+04       2.8577e+03       -8.2321e+02        1.000           6.5
  12      4.5764e+04       2.9622e+03       -7.1148e+02        1.000           6.9
  13      3.4574e+04       3.0412e+03       -6.3091e+02        1.000           7.4
  14      2.6121e+04       3.1035e+03       -5.7269e+02        1.000           7.9
  15      1.9734e+04       3.1622e+03       -5.3997e+02        1.000           8.3
  16      1.4909e+04       3.2163e+03       -5.3207e+02        1.000           8.8
  17      1.1263e+04       3.2757e+03       -5.4427e+02        1.000           9.2
  18      8.5095e+03       3.3372e+03       -5.7628e+02        1.000           9.7
  19      6.4288e+03       3.4069e+03       -6.2827e+02        1.000          10.2
  20      4.8569e+03       3.4849e+03       -6.9746e+02        1.000          10.7
  21      3.6694e+03       3.5751e+03       -7.8354e+02        1.000          11.1
  22      2.7722e+03       3.6747e+03       -8.9663e+02        1.000          11.6
  23      2.0944e+03       3.7882e+03       -1.0346e+03        1.000          12.1
  24      1.5823e+03       3.9188e+03       -1.2025e+03        1.000          12.6
  25      1.1954e+03       4.0656e+03       -1.4096e+03        1.000          13.0
  26      9.0311e+02       4.2363e+03       -1.6600e+03        1.000          13.5
  27      6.8229e+02       4.4323e+03       -1.9668e+03        1.000          14.0
  28      5.1546e+02       4.6591e+03       -2.3419e+03        1.000          14.4
  29      3.8943e+02       4.9250e+03       -2.7991e+03        0.999          14.9
  30      2.9421e+02       5.2320e+03       -3.3639e+03        0.999          15.4
  31      2.2227e+02       5.5904e+03       -4.0524e+03        0.999          16.1
  32      1.6793e+02       6.0172e+03       -4.9108e+03        0.999          16.8
  33      1.2687e+02       6.5292e+03       -5.9720e+03        0.999          17.3
  34      9.5846e+01       7.1509e+03       -7.2828e+03        0.999          17.8
  35      7.2411e+01       7.9103e+03       -8.9046e+03        0.999          18.4
  36      5.4092e+01       8.8728e+03       -1.1006e+04        0.999          19.8
  37      3.9533e+01       1.0204e+04       -1.3810e+04        0.999          21.6
  38      2.8174e+01       1.2077e+04       -1.7658e+04        0.999          23.0
  39      1.9503e+01       1.4828e+04       -2.2999e+04        0.999          24.6
  40      1.3058e+01       1.8946e+04       -3.0543e+04        0.999          26.5
  41      8.4196e+00       2.5308e+04       -4.1302e+04        0.999          28.7
  42      5.2123e+00       3.5238e+04       -5.6794e+04        0.999          31.4
  43      3.0979e+00       5.0652e+04       -7.9160e+04        0.999          35.5
  44      1.7783e+00       7.4429e+04       -1.1138e+05        0.999          41.2
  45      1.0000e+00       1.0947e+05       -1.5675e+05        0.999          45.9

File: 10.txt
File.......:  cell10ppobqliftfsi40wt - NOV,03.2021

System.....:
Potential..:  0.004V
Current....:  1.9224nA
Temperature:  -0.8 +-0.1 C
Time.......:  15:56:03 - 15:56:52
Comment....:

              Main
time.......:  22680 s
Impedance samples

Lines:   45
Columns: 5

Number   Frequency/Hz   impedance R/Ohm   impedance I/Ohm   Significance   Time/s
   1      1.0000e+06       2.7967e+02       -1.8238e+02        0.998           0.0
   2      7.5549e+05       3.1775e+02       -1.6397e+02        0.999           1.3
   3      5.7077e+05       3.4959e+02       -1.4725e+02        0.999           1.8
   4      4.3121e+05       3.7234e+02       -1.2555e+02        1.000           2.5
   5      3.2578e+05       3.9024e+02       -1.0822e+02        1.000           3.3
   6      2.4612e+05       4.0387e+02       -9.2919e+01        1.000           3.7
   7      1.8594e+05       4.1472e+02       -8.0943e+01        1.000           4.1
   8      1.4048e+05       4.2387e+02       -7.2754e+01        1.000           4.6
   9      1.0613e+05       4.3059e+02       -6.6790e+01        1.000           5.1
  10      8.0180e+04       4.3754e+02       -6.3704e+01        1.000           5.5
  11      6.0575e+04       4.4292e+02       -6.4646e+01        1.000           6.0
  12      4.5764e+04       4.4992e+02       -6.7377e+01        1.000           6.4
  13      3.4574e+04       4.5770e+02       -7.3340e+01        1.000           6.9
  14      2.6121e+04       4.6554e+02       -8.1264e+01        1.000           7.4
  15      1.9734e+04       4.7500e+02       -9.1988e+01        1.000           7.9
  16      1.4909e+04       4.8564e+02       -1.0642e+02        1.000           8.3
  17      1.1263e+04       4.9874e+02       -1.2421e+02        1.000           8.8
  18      8.5095e+03       5.1324e+02       -1.4614e+02        1.000           9.3
  19      6.4288e+03       5.3068e+02       -1.7332e+02        0.999           9.7
  20      4.8569e+03       5.5099e+02       -2.0614e+02        1.000          10.2
  21      3.6694e+03       5.7528e+02       -2.4498e+02        1.000          10.7
  22      2.7722e+03       6.0296e+02       -2.9328e+02        0.999          11.1
  23      2.0944e+03       6.3036e+02       -3.4931e+02        1.000          11.8
  24      1.5823e+03       6.6738e+02       -4.2070e+02        1.000          12.6
  25      1.1954e+03       7.0968e+02       -5.0912e+02        1.000          13.0
  26      9.0311e+02       7.5900e+02       -6.1875e+02        1.000          13.5
  27      6.8229e+02       8.1634e+02       -7.5579e+02        1.000          14.0
  28      5.1546e+02       8.8365e+02       -9.2778e+02        1.000          14.4
  29      3.8943e+02       9.6511e+02       -1.1435e+03        0.999          14.9
  30      2.9421e+02       1.0621e+03       -1.4155e+03        0.999          15.4
  31      2.2227e+02       1.1827e+03       -1.7575e+03        0.999          15.9
  32      1.6793e+02       1.3293e+03       -2.1886e+03        0.999          16.3
  33      1.2687e+02       1.5133e+03       -2.7310e+03        0.999          16.8
  34      9.5846e+01       1.7475e+03       -3.4131e+03        0.999          17.3
  35      7.2411e+01       2.0456e+03       -4.2670e+03        0.999          17.9
  36      5.4092e+01       2.4286e+03       -5.3718e+03        0.999          19.3
  37      3.9533e+01       2.9834e+03       -6.8797e+03        0.999          21.5
  38      2.8174e+01       3.7878e+03       -8.9779e+03        0.999          23.4
  39      1.9503e+01       4.9938e+03       -1.1948e+04        0.999          25.0
  40      1.3058e+01       6.8466e+03       -1.6235e+04        0.999          27.0
  41      8.4196e+00       9.7679e+03       -2.2549e+04        0.999          29.2
  42      5.2123e+00       1.4475e+04       -3.2017e+04        0.999          31.9
  43      3.0979e+00       2.2118e+04       -4.6360e+04        1.000          35.3
  44      1.7783e+00       3.4541e+04       -6.8057e+04        0.999          42.2
  45      1.0000e+00       5.3898e+04       -1.0007e+05        1.000          46.8