Folder: GlassyIonicConductorDatabase/program/database/experiments/MU/normal/1122_ppo_chlornail_libf4/80/eis_data

Note: README.md
# GlassyIonicConductorDatabase

- Contains daily experimental data of polymeric ionic conductors
  
  - Process (as flowchart), structure, measurements, and properties

- Data are processed by machine learning tools

# Requirements

- Check for env. yml

- This database is processed by "FlowMater", which can treat graph data.
  
  - Visit the following URL for the latest version.
  
  - https://github.com/KanHatakeyama/FlowMater2

# Related paper

- TBD

# History

- version 2022.1.18: initial version

# Author

- Kan Hatakeyama-Sato
- Waseda University
- [Kan Hatakeyama](https://kanhatakeyama.github.io/)
- [satokan@toki.waseda](mailto:satokan@toki.waseda).(japan)

File: 2.txt
File.......:  cell2ppochloranillibf4 - NOV,23.2021

System.....:
Potential..:  0.003V
Current....:  11.282pA
Temperature:  -0.8 +-0.2 C
Time.......:  19:44:19 - 19:45:08
Comment....:

              Main
time.......:  13080 s
Impedance samples

Lines:   45
Columns: 5

Number   Frequency/Hz   impedance R/Ohm   impedance I/Ohm   Significance   Time/s
   1      1.0000e+06      -6.2642e+00       -9.8084e+02        0.996           0.0
   2      7.5549e+05       1.3459e+01       -1.3165e+03        0.992           1.8
   3      5.7077e+05      -8.9472e+00       -1.7196e+03        0.998           2.3
   4      4.3121e+05       9.0082e+01       -2.2515e+03        0.997           3.3
   5      3.2578e+05       1.3884e+02       -2.9639e+03        0.997           4.2
   6      2.4612e+05       1.9153e+02       -3.8668e+03        0.998           4.7
   7      1.8594e+05       2.5792e+02       -5.0759e+03        0.998           5.1
   8      1.4048e+05       4.0561e+02       -6.6550e+03        0.997           5.5
   9      1.0613e+05       4.4969e+02       -8.7191e+03        0.998           6.0
  10      8.0180e+04       7.4316e+02       -1.1487e+04        0.999           6.7
  11      6.0575e+04       9.1004e+02       -1.5007e+04        0.999           7.3
  12      4.5764e+04       1.1175e+03       -1.9694e+04        0.998           7.8
  13      3.4574e+04       1.3725e+03       -2.5840e+04        0.998           8.2
  14      2.6121e+04       1.7407e+03       -3.3907e+04        0.998           8.7
  15      1.9734e+04       2.2269e+03       -4.4599e+04        0.999           9.2
  16      1.4909e+04       2.7658e+03       -5.8490e+04        0.999           9.6
  17      1.1263e+04       3.5310e+03       -7.6885e+04        0.998          10.1
  18      8.5095e+03       6.3675e+03       -1.0144e+05        0.997          10.8
  19      6.4288e+03       7.6369e+03       -1.3305e+05        0.998          11.5
  20      4.8569e+03       9.4752e+03       -1.7485e+05        0.998          11.9
  21      3.6694e+03       1.2069e+04       -2.2967e+05        0.998          12.4
  22      2.7722e+03       1.5360e+04       -3.0163e+05        0.999          12.8
  23      2.0944e+03       2.0199e+04       -3.9654e+05        0.997          13.3
  24      1.5823e+03       2.7158e+04       -5.2118e+05        0.997          13.7
  25      1.1954e+03       3.5773e+04       -6.8516e+05        0.997          14.2
  26      9.0311e+02       7.3739e+04       -9.0381e+05        0.999          14.9
  27      6.8229e+02       9.3581e+04       -1.1829e+06        0.997          15.6
  28      5.1546e+02       1.2043e+05       -1.5483e+06        0.999          16.0
  29      3.8943e+02       1.6426e+05       -2.0315e+06        0.997          16.5
  30      2.9421e+02       2.2228e+05       -2.6498e+06        0.999          17.0
  31      2.2227e+02       3.3344e+05       -3.4801e+06        0.997          17.4
  32      1.6793e+02       4.4018e+05       -4.5408e+06        0.998          17.9
  33      1.2687e+02       6.0750e+05       -5.9312e+06        0.995          18.3
  34      9.5846e+01       9.9767e+05       -7.9208e+06        0.995          18.9
  35      7.2411e+01       1.5325e+06       -1.0159e+07        0.997          19.5
  36      5.4092e+01      -7.3749e+05       -1.3300e+07        0.997          21.3
  37      3.9533e+01       3.3847e+06       -1.6220e+07        0.993          23.5
  38      2.8174e+01       6.2165e+06       -2.3993e+07        0.947          24.9
  39      1.9503e+01       9.4377e+06       -3.2128e+07        0.964          26.6
  40      1.3058e+01       1.4856e+07       -4.3104e+07        0.975          28.5
  41      8.4196e+00       2.6354e+07       -6.3009e+07        0.943          30.7
  42      5.2123e+00       4.3531e+07       -8.3670e+07        0.980          33.4
  43      3.0979e+00       7.6958e+07       -1.1068e+08        0.998          36.8
  44      1.7783e+00       1.2770e+08       -1.3509e+08        0.995          41.8
  45      1.0000e+00       1.8902e+08       -1.5392e+08        0.990          46.5

File: 4.txt
File.......:  cell4ppochloranillibf4 - NOV,23.2021

System.....:
Potential..:  -0.012V
Current....:  -9.0693pA
Temperature:  -0.8 +-0.1 C
Time.......:  19:48:01 - 19:48:51
Comment....:

              Main
time.......:  13080 s
Impedance samples

Lines:   45
Columns: 5

Number   Frequency/Hz   impedance R/Ohm   impedance I/Ohm   Significance   Time/s
   1      1.0000e+06       2.0549e+02       -9.5680e+02        0.997           0.0
   2      7.5549e+05       2.4039e+02       -1.2404e+03        0.996           1.8
   3      5.7077e+05       2.2493e+02       -1.5745e+03        0.997           2.3
   4      4.3121e+05       3.3923e+02       -2.0394e+03        0.998           3.3
   5      3.2578e+05       3.8591e+02       -2.6447e+03        0.998           4.2
   6      2.4612e+05       4.5648e+02       -3.4497e+03        0.997           4.7
   7      1.8594e+05       4.8389e+02       -4.5123e+03        0.999           5.1
   8      1.4048e+05       5.6710e+02       -5.8716e+03        0.999           5.5
   9      1.0613e+05       6.7068e+02       -7.7039e+03        0.998           6.0
  10      8.0180e+04       9.6761e+02       -1.0126e+04        0.999           6.7
  11      6.0575e+04       1.1311e+03       -1.3233e+04        0.999           7.3
  12      4.5764e+04       1.3256e+03       -1.7350e+04        0.998           7.8
  13      3.4574e+04       1.5755e+03       -2.2753e+04        0.998           8.2
  14      2.6121e+04       1.9339e+03       -2.9833e+04        0.999           8.7
  15      1.9734e+04       2.3820e+03       -3.9192e+04        0.998           9.2
  16      1.4909e+04       2.9643e+03       -5.1382e+04        0.999           9.6
  17      1.1263e+04       3.7260e+03       -6.7527e+04        0.998          10.1
  18      8.5095e+03       4.7929e+03       -8.8678e+04        0.998          10.5
  19      6.4288e+03       7.6562e+03       -1.1658e+05        0.998          11.2
  20      4.8569e+03       9.5592e+03       -1.5270e+05        0.998          11.9
  21      3.6694e+03       1.2287e+04       -2.0092e+05        0.998          12.4
  22      2.7722e+03       1.5894e+04       -2.6366e+05        0.999          12.8
  23      2.0944e+03       2.0969e+04       -3.4607e+05        0.997          13.3
  24      1.5823e+03       2.8363e+04       -4.5427e+05        0.998          13.7
  25      1.1954e+03       3.8880e+04       -5.9575e+05        0.998          14.2
  26      9.0311e+02       5.3125e+04       -7.8133e+05        0.999          14.7
  27      6.8229e+02       9.5692e+04       -1.0248e+06        0.998          15.3
  28      5.1546e+02       1.2686e+05       -1.3399e+06        0.997          16.0
  29      3.8943e+02       1.7305e+05       -1.7500e+06        0.997          16.5
  30      2.9421e+02       2.3997e+05       -2.2860e+06        0.997          17.0
  31      2.2227e+02       3.5518e+05       -2.9881e+06        0.998          17.4
  32      1.6793e+02       4.9352e+05       -3.8732e+06        0.996          17.9
  33      1.2687e+02       7.4462e+05       -5.0113e+06        0.997          18.3
  34      9.5846e+01       9.8444e+05       -6.6489e+06        0.996          18.9
  35      7.2411e+01       1.5144e+06       -8.5063e+06        0.997          19.5
  36      5.4092e+01       2.9992e+06       -9.1658e+06        0.996          20.9
  37      3.9533e+01       4.0840e+06       -1.4931e+07        0.997          22.8
  38      2.8174e+01       5.3184e+06       -1.8171e+07        0.963          24.7
  39      1.9503e+01       8.8018e+06       -2.4387e+07        0.966          26.7
  40      1.3058e+01       1.5778e+07       -3.2569e+07        0.982          28.6
  41      8.4196e+00       2.4607e+07       -4.2104e+07        0.956          30.8
  42      5.2123e+00       4.1990e+07       -5.3017e+07        0.985          33.5
  43      3.0979e+00       6.3118e+07       -6.3384e+07        0.999          36.9
  44      1.7783e+00       9.0208e+07       -7.0329e+07        0.998          41.9
  45      1.0000e+00       1.1762e+08       -7.6506e+07        0.989          46.5

File: 10.txt
File.......:  cell10ppochloranillibf4 - NOV,23.2021

System.....:
Potential..:  -0.023V
Current....:  -244.58pA
Temperature:  -0.8 +-0.2 C
Time.......:  19:49:51 - 19:50:40
Comment....:

              Main
time.......:  13080 s
Impedance samples

Lines:   45
Columns: 5

Number   Frequency/Hz   impedance R/Ohm   impedance I/Ohm   Significance   Time/s
   1      1.0000e+06       6.0169e+01       -6.9374e+02        0.996           0.0
   2      7.5549e+05       9.4746e+01       -9.0988e+02        0.997           1.8
   3      5.7077e+05       8.9872e+01       -1.1776e+03        0.997           2.3
   4      4.3121e+05       1.7549e+02       -1.5116e+03        0.998           3.3
   5      3.2578e+05       2.2546e+02       -1.9646e+03        0.998           4.2
   6      2.4612e+05       2.9415e+02       -2.5504e+03        0.998           4.7
   7      1.8594e+05       3.6938e+02       -3.3100e+03        0.998           5.1
   8      1.4048e+05       4.7478e+02       -4.2982e+03        0.999           5.5
   9      1.0613e+05       6.1313e+02       -5.5768e+03        0.999           6.0
  10      8.0180e+04       7.8255e+02       -7.2512e+03        0.999           6.4
  11      6.0575e+04       1.1217e+03       -9.4142e+03        0.999           7.1
  12      4.5764e+04       1.4187e+03       -1.2235e+04        0.998           7.8
  13      3.4574e+04       1.8113e+03       -1.5921e+04        0.999           8.2
  14      2.6121e+04       2.3870e+03       -2.0694e+04        0.999           8.7
  15      1.9734e+04       3.1646e+03       -2.6943e+04        0.999           9.2
  16      1.4909e+04       4.2182e+03       -3.5002e+04        0.999           9.6
  17      1.1263e+04       5.7280e+03       -4.5509e+04        0.999          10.1
  18      8.5095e+03       7.8585e+03       -5.9112e+04        0.999          10.5
  19      6.4288e+03       1.0938e+04       -7.6665e+04        0.998          11.0
  20      4.8569e+03       1.6548e+04       -9.9254e+04        0.998          11.7
  21      3.6694e+03       2.3493e+04       -1.2822e+05        0.999          12.4
  22      2.7722e+03       3.3633e+04       -1.6494e+05        0.999          12.8
  23      2.0944e+03       4.8760e+04       -2.1116e+05        0.997          13.3
  24      1.5823e+03       7.1147e+04       -2.6835e+05        0.998          13.7
  25      1.1954e+03       1.0364e+05       -3.3785e+05        1.000          14.2
  26      9.0311e+02       1.4963e+05       -4.1956e+05        0.998          14.7
  27      6.8229e+02       2.1180e+05       -5.1300e+05        0.999          15.1
  28      5.1546e+02       2.9219e+05       -6.1721e+05        0.999          15.6
  29      3.8943e+02       4.0129e+05       -7.2496e+05        0.998          16.3
  30      2.9421e+02       5.1780e+05       -8.4639e+05        0.999          17.0
  31      2.2227e+02       6.5170e+05       -9.8033e+05        0.999          17.4
  32      1.6793e+02       8.0678e+05       -1.1280e+06        0.998          17.9
  33      1.2687e+02       9.8041e+05       -1.3008e+06        0.999          18.3
  34      9.5846e+01       1.1878e+06       -1.4913e+06        0.999          18.9
  35      7.2411e+01       1.4164e+06       -1.7114e+06        0.999          19.4
  36      5.4092e+01       1.7588e+06       -2.0871e+06        0.997          20.8
  37      3.9533e+01       2.0580e+06       -2.2927e+06        0.999          22.6
  38      2.8174e+01       2.5426e+06       -2.7463e+06        0.994          24.0
  39      1.9503e+01       3.1192e+06       -3.2181e+06        0.995          25.7
  40      1.3058e+01       3.9608e+06       -3.8131e+06        0.996          27.6
  41      8.4196e+00       5.0770e+06       -4.5428e+06        0.995          29.8
  42      5.2123e+00       6.5368e+06       -5.3607e+06        0.998          32.4
  43      3.0979e+00       8.3957e+06       -6.2228e+06        0.999          36.5
  44      1.7783e+00       1.0632e+07       -7.2073e+06        0.999          42.1
  45      1.0000e+00       1.3116e+07       -8.4602e+06        0.998          46.7