Folder: GlassyIonicConductorDatabase/database/experiments/MU/normal/905_ppo_chloranil_liftfsi/80/eis_data

Note: README.md
# GlassyIonicConductorDatabase

- Contains daily experimental data of polymeric ionic conductors
  
  - Process (as flowchart), structure, measurements, and properties

- Data are processed by machine learning tools

# Requirements

- Check for env. yml

- This database is processed by "FlowMater", which can treat graph data.
  
  - Visit the following URL for the latest version.
  
  - https://github.com/KanHatakeyama/FlowMater2

# Related paper

- TBD

# History

- version 2022.1.18: initial version

# Author

- Kan Hatakeyama-Sato
- Waseda University
- [Kan Hatakeyama](https://kanhatakeyama.github.io/)
- [satokan@toki.waseda](mailto:satokan@toki.waseda).(japan)

File: 3.txt
File.......:  cell3ppochloranilliftfsi - SEP,06.2021

System.....:
Potential..:  0.012V
Current....:  -7.6026nA
Temperature:  -0.7 +-0.1 C
Time.......:  14:44:26 - 14:45:16
Comment....:

Impedance samples

Lines:   45
Columns: 5

Number   Frequency/Hz   impedance R/Ohm   impedance I/Ohm   Significance   Time/s
   1      1.0000e+06       1.7623e+02       -4.5834e+01        0.999           0.0
   2      7.5549e+05       1.8109e+02       -3.9356e+01        0.999           1.3
   3      5.7077e+05       1.8385e+02       -3.4714e+01        1.000           1.8
   4      4.3121e+05       1.8700e+02       -3.1719e+01        1.000           2.5
   5      3.2578e+05       1.8996e+02       -3.0364e+01        1.000           3.3
   6      2.4612e+05       1.9310e+02       -3.0234e+01        1.000           3.7
   7      1.8594e+05       1.9621e+02       -3.1163e+01        1.000           4.1
   8      1.4048e+05       1.9971e+02       -3.3271e+01        1.000           4.6
   9      1.0613e+05       2.0359e+02       -3.6421e+01        1.000           5.1
  10      8.0180e+04       2.0827e+02       -4.0624e+01        1.000           5.5
  11      6.0575e+04       2.1343e+02       -4.6123e+01        1.000           6.0
  12      4.5764e+04       2.1967e+02       -5.2814e+01        1.000           6.4
  13      3.4574e+04       2.2690e+02       -6.1049e+01        1.000           6.9
  14      2.6121e+04       2.3506e+02       -7.0539e+01        1.000           7.4
  15      1.9734e+04       2.4466e+02       -8.2034e+01        1.000           7.9
  16      1.4909e+04       2.5551e+02       -9.5755e+01        0.999           8.3
  17      1.1263e+04       2.6838e+02       -1.1211e+02        1.000           8.8
  18      8.5095e+03       2.8295e+02       -1.3156e+02        1.000           9.3
  19      6.4288e+03       2.9958e+02       -1.5491e+02        0.999           9.7
  20      4.8569e+03       3.1878e+02       -1.8278e+02        0.999          10.2
  21      3.6694e+03       3.4127e+02       -2.1577e+02        0.999          10.7
  22      2.7722e+03       3.6643e+02       -2.5627e+02        1.000          11.1
  23      2.0944e+03       3.9518e+02       -3.0543e+02        1.000          11.6
  24      1.5823e+03       4.2798e+02       -3.6563e+02        1.000          12.1
  25      1.1954e+03       4.6493e+02       -4.4018e+02        0.999          12.6
  26      9.0311e+02       5.0293e+02       -5.2873e+02        0.998          13.3
  27      6.8229e+02       5.5019e+02       -6.4408e+02        0.998          14.0
  28      5.1546e+02       6.0438e+02       -7.8977e+02        0.999          14.4
  29      3.8943e+02       6.6848e+02       -9.7433e+02        0.999          14.9
  30      2.9421e+02       7.4299e+02       -1.2092e+03        0.999          15.4
  31      2.2227e+02       8.3490e+02       -1.5079e+03        0.999          15.9
  32      1.6793e+02       9.4627e+02       -1.8890e+03        0.999          16.3
  33      1.2687e+02       1.0863e+03       -2.3739e+03        0.998          16.8
  34      9.5846e+01       1.2667e+03       -2.9896e+03        0.999          17.3
  35      7.2411e+01       1.5009e+03       -3.7687e+03        0.998          17.9
  36      5.4092e+01       1.8122e+03       -4.7871e+03        0.998          19.3
  37      3.9533e+01       2.2639e+03       -6.1883e+03        0.998          21.2
  38      2.8174e+01       2.9313e+03       -8.1410e+03        0.998          23.0
  39      1.9503e+01       3.9545e+03       -1.0936e+04        0.998          25.1
  40      1.3058e+01       5.5552e+03       -1.5007e+04        0.998          27.0
  41      8.4196e+00       8.1408e+03       -2.1069e+04        0.998          29.2
  42      5.2123e+00       1.2427e+04       -3.0231e+04        0.998          31.9
  43      3.0979e+00       1.9618e+04       -4.4161e+04        0.998          35.3
  44      1.7783e+00       3.1660e+04       -6.5153e+04        0.998          42.2
  45      1.0000e+00       5.0814e+04       -9.5768e+04        0.998          46.9

File: 4.txt
File.......:  cell4ppochloranilliftfsi - SEP,06.2021

System.....:
Potential..:  0.003V
Current....:  -51.172nA
Temperature:  -0.8 +-0.2 C
Time.......:  14:48:49 - 14:49:36
Comment....:

Impedance samples

Lines:   45
Columns: 5

Number   Frequency/Hz   impedance R/Ohm   impedance I/Ohm   Significance   Time/s
   1      1.0000e+06       1.8989e+02       -4.4810e+01        0.998           0.0
   2      7.5549e+05       1.9414e+02       -3.4854e+01        0.999           1.0
   3      5.7077e+05       1.9667e+02       -2.7729e+01        0.999           1.5
   4      4.3121e+05       1.9780e+02       -2.2142e+01        1.000           2.3
   5      3.2578e+05       1.9883e+02       -1.8199e+01        1.000           3.0
   6      2.4612e+05       1.9972e+02       -1.5398e+01        1.000           3.4
   7      1.8594e+05       2.0056e+02       -1.3663e+01        1.000           3.9
   8      1.4048e+05       2.0126e+02       -1.2443e+01        1.000           4.4
   9      1.0613e+05       2.0203e+02       -1.2198e+01        1.000           4.8
  10      8.0180e+04       2.0291e+02       -1.2534e+01        1.000           5.3
  11      6.0575e+04       2.0372e+02       -1.3777e+01        1.000           5.7
  12      4.5764e+04       2.0489e+02       -1.5545e+01        1.000           6.2
  13      3.4574e+04       2.0632e+02       -1.8113e+01        1.000           6.7
  14      2.6121e+04       2.0790e+02       -2.1338e+01        1.000           7.1
  15      1.9734e+04       2.0985e+02       -2.5685e+01        1.000           7.6
  16      1.4909e+04       2.1220e+02       -3.1205e+01        1.000           8.1
  17      1.1263e+04       2.1519e+02       -3.8162e+01        1.000           8.5
  18      8.5095e+03       2.1872e+02       -4.6890e+01        1.000           9.0
  19      6.4288e+03       2.2310e+02       -5.7876e+01        1.000           9.5
  20      4.8569e+03       2.2858e+02       -7.1375e+01        0.999           9.9
  21      3.6694e+03       2.3550e+02       -8.7764e+01        1.000          10.4
  22      2.7722e+03       2.4388e+02       -1.0848e+02        1.000          10.9
  23      2.0944e+03       2.5430e+02       -1.3399e+02        1.000          11.4
  24      1.5823e+03       2.6721e+02       -1.6550e+02        1.000          11.8
  25      1.1954e+03       2.8298e+02       -2.0459e+02        0.999          12.3
  26      9.0311e+02       3.0255e+02       -2.5290e+02        0.999          12.8
  27      6.8229e+02       3.2665e+02       -3.1292e+02        0.999          13.2
  28      5.1546e+02       3.5669e+02       -3.8749e+02        0.999          13.7
  29      3.8943e+02       3.9505e+02       -4.8019e+02        1.000          14.2
  30      2.9421e+02       4.3981e+02       -5.9065e+02        0.998          14.9
  31      2.2227e+02       5.0275e+02       -7.3143e+02        0.999          15.6
  32      1.6793e+02       5.8396e+02       -9.0446e+02        0.999          16.1
  33      1.2687e+02       6.9079e+02       -1.1147e+03        0.999          16.5
  34      9.5846e+01       8.3138e+02       -1.3673e+03        0.999          17.1
  35      7.2411e+01       1.0148e+03       -1.6657e+03        0.999          17.7
  36      5.4092e+01       1.2566e+03       -2.0283e+03        0.999          19.1
  37      3.9533e+01       1.5966e+03       -2.4786e+03        0.999          20.9
  38      2.8174e+01       2.0653e+03       -3.0390e+03        0.999          22.4
  39      1.9503e+01       2.7081e+03       -3.7346e+03        0.999          24.0
  40      1.3058e+01       3.5796e+03       -4.6059e+03        0.999          25.9
  41      8.4196e+00       4.7483e+03       -5.7210e+03        0.999          28.6
  42      5.2123e+00       6.3169e+03       -7.2121e+03        0.999          31.8
  43      3.0979e+00       8.4189e+03       -9.2869e+03        1.000          35.1
  44      1.7783e+00       1.1266e+04       -1.2262e+04        0.999          40.1
  45      1.0000e+00       1.5084e+04       -1.6546e+04        1.000          44.8

File: 10.txt
File.......:  cell10ppochloranilliftfsi - SEP,06.2021

System.....:
Potential..:  0.005V
Current....:  -47.467nA
Temperature:  -0.8 +-0.1 C
Time.......:  14:47:16 - 14:48:04
Comment....:

Impedance samples

Lines:   45
Columns: 5

Number   Frequency/Hz   impedance R/Ohm   impedance I/Ohm   Significance   Time/s
   1      1.0000e+06       8.1017e+01       -7.0490e+00        0.999           0.0
   2      7.5549e+05       8.1367e+01       -5.6617e+00        0.999           1.0
   3      5.7077e+05       8.1692e+01       -4.6971e+00        0.999           1.5
   4      4.3121e+05       8.2011e+01       -3.9442e+00        1.000           2.3
   5      3.2578e+05       8.2273e+01       -3.5114e+00        1.000           3.0
   6      2.4612e+05       8.2515e+01       -3.2520e+00        1.000           3.4
   7      1.8594e+05       8.2777e+01       -3.1472e+00        1.000           3.9
   8      1.4048e+05       8.3049e+01       -3.2289e+00        1.000           4.4
   9      1.0613e+05       8.3376e+01       -3.4486e+00        1.000           4.8
  10      8.0180e+04       8.3659e+01       -3.8861e+00        1.000           5.3
  11      6.0575e+04       8.4037e+01       -4.4673e+00        1.000           5.7
  12      4.5764e+04       8.4446e+01       -5.2801e+00        1.000           6.2
  13      3.4574e+04       8.4970e+01       -6.3298e+00        1.000           6.7
  14      2.6121e+04       8.5641e+01       -7.6340e+00        1.000           7.1
  15      1.9734e+04       8.6414e+01       -9.3492e+00        1.000           7.6
  16      1.4909e+04       8.7333e+01       -1.1468e+01        1.000           8.1
  17      1.1263e+04       8.8483e+01       -1.4162e+01        1.000           8.5
  18      8.5095e+03       8.9845e+01       -1.7515e+01        1.000           9.0
  19      6.4288e+03       9.1477e+01       -2.1729e+01        1.000           9.5
  20      4.8569e+03       9.3569e+01       -2.6909e+01        1.000           9.9
  21      3.6694e+03       9.6212e+01       -3.3222e+01        1.000          10.4
  22      2.7722e+03       9.9408e+01       -4.1222e+01        1.000          10.9
  23      2.0944e+03       1.0351e+02       -5.1085e+01        1.000          11.4
  24      1.5823e+03       1.0857e+02       -6.3246e+01        1.000          11.8
  25      1.1954e+03       1.1487e+02       -7.8288e+01        0.999          12.3
  26      9.0311e+02       1.2289e+02       -9.6721e+01        0.999          12.8
  27      6.8229e+02       1.3286e+02       -1.1940e+02        0.999          13.2
  28      5.1546e+02       1.4537e+02       -1.4720e+02        0.999          13.7
  29      3.8943e+02       1.6144e+02       -1.8115e+02        1.000          14.2
  30      2.9421e+02       1.8150e+02       -2.2261e+02        1.000          14.7
  31      2.2227e+02       2.0722e+02       -2.7282e+02        0.999          15.1
  32      1.6793e+02       2.3951e+02       -3.3365e+02        0.999          15.6
  33      1.2687e+02       2.8045e+02       -4.0664e+02        0.999          16.1
  34      9.5846e+01       3.3223e+02       -4.9360e+02        0.999          16.6
  35      7.2411e+01       3.9270e+02       -5.9144e+02        0.999          17.4
  36      5.4092e+01       4.7393e+02       -7.1639e+02        0.999          19.1
  37      3.9533e+01       5.8454e+02       -8.7552e+02        0.999          20.9
  38      2.8174e+01       7.3427e+02       -1.0808e+03        0.999          22.3
  39      1.9503e+01       9.3998e+02       -1.3490e+03        0.999          24.0
  40      1.3058e+01       1.2249e+03       -1.7065e+03        0.999          25.8
  41      8.4196e+00       1.6262e+03       -2.1936e+03        1.000          28.1
  42      5.2123e+00       2.2004e+03       -2.8703e+03        1.000          30.8
  43      3.0979e+00       3.0278e+03       -3.8253e+03        1.000          34.2
  44      1.7783e+00       4.2256e+03       -5.1712e+03        1.000          41.0
  45      1.0000e+00       5.9194e+03       -7.0418e+03        0.999          45.7