Folder: GlassyIonicConductorDatabase/database/experiments/MU/xrd/1102/parallel/1018/xrd

Note: README.md
# GlassyIonicConductorDatabase

- Contains daily experimental data of polymeric ionic conductors
  
  - Process (as flowchart), structure, measurements, and properties

- Data are processed by machine learning tools

# Requirements

- Check for env. yml

- This database is processed by "FlowMater", which can treat graph data.
  
  - Visit the following URL for the latest version.
  
  - https://github.com/KanHatakeyama/FlowMater2

# Related paper

- TBD

# History

- version 2022.1.18: initial version

# Author

- Kan Hatakeyama-Sato
- Waseda University
- [Kan Hatakeyama](https://kanhatakeyama.github.io/)
- [satokan@toki.waseda](mailto:satokan@toki.waseda).(japan)

File: 100.TXT
Sample
Comments
Filename	C:\Data\西出研\梅木\20211102オペ\LiFTFSI30wt_04_0004_0099-1_C_2θ.raw
Goniometer	SmartLab(In-plane)
Attachment	標準Zステージ
Monochromater	None
X	0
Y	0
Z	0.01652
ScanningMode	2Theta
ScanningType	Continuos Scanning
X-Ray	40kV/30mA
入射スリット	0.300mm
受光スリット1	20.000mm
受光スリット2	20.000mm
None
Start	5
Stop	60
Step	0.02
Speed	21.6746
Theta	0
5	5743.76
5.2	5599.27
5.4	6159.19
5.6	5490.89
5.8	5093.53
6	5328.33
6.2	5238.02
6.4	5183.84
6.6	5400.58
6.8	4461.35
7	5238.02
7.2	4714.22
7.4	4985.15
7.6	5563.14
7.8	5003.21
8	4660.03
8.2	4840.66
8.4	5165.77
8.6	5219.96
8.8	4930.97
9	4967.09
9.2	4551.66
9.4	4750.34
9.6	4515.54
9.8	4045.92
10	4172.36
10.2	4696.16
10.4	4750.34
10.6	4750.34
10.8	4316.85
11	4154.29
11.2	4840.66
11.4	4244.6
11.6	3901.42
11.8	4425.23
12	4804.53
12.2	4533.6
12.4	4732.28
12.6	4118.17
12.8	4605.85
13	4876.78
13.2	4678.1
13.4	4172.36
13.6	4334.92
13.8	4443.29
14	4660.03
14.2	4352.98
14.4	4027.86
14.6	4154.29
14.8	4262.67
15	4840.66
15.2	4696.16
15.4	4352.98
15.6	4352.98
15.8	4118.17
16	4407.16
16.2	5364.46
16.4	4334.92
16.6	4497.47
16.8	3991.73
17	4316.85
17.2	5689.58
17.4	4136.23
17.6	3811.11
17.8	4082.05
18	3847.24
18.2	5238.02
18.4	4786.47
18.6	4226.54
18.8	4172.36
19	4912.9
19.2	5364.46
19.4	4714.22
19.6	4461.35
19.8	3829.18
20	3648.55
20.2	4208.48
20.4	3793.05
20.6	3305.37
20.8	3720.8
21	3431.81
21.2	3504.06
21.4	3829.18
21.6	3630.49
21.8	3720.8
22	3504.06
22.2	3359.56
22.4	3305.37
22.6	3413.75
22.8	3359.56
23	3467.93
23.2	3106.69
23.4	2835.76
23.6	3630.49
23.8	3558.24
24	3449.87
24.2	3233.12
24.4	3449.87
24.6	3106.69
24.8	2853.82
25	2763.51
25.2	2817.69
25.4	2745.45
25.6	2474.51
25.8	2600.95
26	3215.06
26.2	2944.13
26.4	2582.89
26.6	2221.64
26.8	2167.46
27	2221.64
27.2	2022.96
27.4	2095.21
27.6	2077.15
27.8	2564.82
28	1914.59
28.2	2366.14
28.4	2203.58
28.6	1914.59
28.8	2149.4
29	1860.4
29.2	2402.27
29.4	2257.77
29.6	1986.84
29.8	1914.59
30	2095.21
30.2	1968.77
30.4	1697.84
30.6	2041.02
30.8	1770.09
31	1553.34
31.2	1878.46
31.4	1300.47
31.6	1517.22
31.8	1733.97
32	1463.03
32.2	1354.66
32.4	1968.77
32.6	1553.34
32.8	1372.72
33	1390.79
33.2	1318.54
33.4	1264.35
33.6	1390.79
33.8	1444.97
34	1246.29
34.2	1481.1
34.4	1282.41
34.6	1625.59
34.8	1228.23
35	1444.97
35.2	1354.66
35.4	1517.22
35.6	1481.1
35.8	1444.97
36	903.107
36.2	1444.97
36.4	1408.85
36.6	1155.98
36.8	1228.23
37	1264.35
37.2	1101.79
37.4	1264.35
37.6	921.169
37.8	1174.04
38	1264.35
38.2	1300.47
38.4	1264.35
38.6	1047.6
38.8	939.232
39	1047.6
39.2	1228.23
39.4	1174.04
39.6	1174.04
39.8	1155.98
40	1047.6
40.2	1119.85
40.4	993.418
40.6	1155.98
40.8	1174.04
41	1246.29
41.2	1155.98
41.4	1065.67
41.6	1192.1
41.8	1390.79
42	1083.73
42.2	1065.67
42.4	1047.6
42.6	1155.98
42.8	975.356
43	812.797
43.2	848.921
43.4	1119.85
43.6	1029.54
43.8	830.859
44	866.983
44.2	1029.54
44.4	794.734
44.6	993.418
44.8	975.356
45	903.107
45.2	957.294
45.4	866.983
45.6	830.859
45.8	848.921
46	975.356
46.2	885.045
46.4	722.486
46.6	903.107
46.8	1011.48
47	740.548
47.2	740.548
47.4	668.299
47.6	740.548
47.8	866.983
48	866.983
48.2	830.859
48.4	650.237
48.6	722.486
48.8	704.424
49	830.859
49.2	596.051
49.4	722.486
49.6	812.797
49.8	758.61
50	758.61
50.2	1011.48
50.4	776.672
50.6	559.927
50.8	577.989
51	812.797
51.2	668.299
51.4	830.859
51.6	523.802
51.8	758.61
52	650.237
52.2	632.175
52.4	830.859
52.6	776.672
52.8	776.672
53	704.424
53.2	469.616
53.4	668.299
53.6	794.734
53.8	505.74
54	722.486
54.2	577.989
54.4	614.113
54.6	559.927
54.8	740.548
55	722.486
55.2	668.299
55.4	614.113
55.6	650.237
55.8	577.989
56	541.864
56.2	433.492
56.4	596.051
56.6	541.864
56.8	523.802
57	559.927
57.2	541.864
57.4	704.424
57.6	433.492
57.8	451.554
58	758.61
58.2	523.802
58.4	577.989
58.6	415.429
58.8	541.864
59	415.429
59.2	433.492
59.4	415.429
59.6	541.864
59.8	469.616
60	469.616