Folder: GlassyIonicConductorDatabase/program/database/experiments/HA/exp195_eis_pmps_chloranil_liftfsi/eis_data

Note: README.md
# GlassyIonicConductorDatabase

- Contains daily experimental data of polymeric ionic conductors
  
  - Process (as flowchart), structure, measurements, and properties

- Data are processed by machine learning tools

# Requirements

- Check for env. yml

- This database is processed by "FlowMater", which can treat graph data.
  
  - Visit the following URL for the latest version.
  
  - https://github.com/KanHatakeyama/FlowMater2

# Related paper

- TBD

# History

- version 2022.1.18: initial version

# Author

- Kan Hatakeyama-Sato
- Waseda University
- [Kan Hatakeyama](https://kanhatakeyama.github.io/)
- [satokan@toki.waseda](mailto:satokan@toki.waseda).(japan)

File: 5.txt
File.......:  202109170855_c-289_eis_rt - SEP,17.2021

System.....:
Potential..:  0.002V
Current....:  -9.2671pA
Temperature:  -0.7 +-0.1 C
Time.......:  08:55:08 - 08:55:57
Comment....:

              Main
time.......:  11280 s
Impedance samples

Lines:   45
Columns: 5

Number   Frequency/Hz   impedance R/Ohm   impedance I/Ohm   Significance   Time/s
   1      1.0000e+06      -1.0760e+01       -7.2996e+02        0.997           0.0
   2      7.5549e+05      -1.2648e+01       -9.5542e+02        0.998           1.8
   3      5.7077e+05      -3.6859e+01       -1.2491e+03        0.996           2.3
   4      4.3121e+05       4.7496e+01       -1.6525e+03        0.997           3.3
   5      3.2578e+05       7.1049e+01       -2.1695e+03        0.998           4.2
   6      2.4612e+05       1.0082e+02       -2.8506e+03        0.998           4.6
   7      1.8594e+05       1.3032e+02       -3.7407e+03        0.998           5.0
   8      1.4048e+05       1.9974e+02       -4.9129e+03        0.999           5.5
   9      1.0613e+05       2.3997e+02       -6.4620e+03        0.998           5.9
  10      8.0180e+04       3.0971e+02       -8.4998e+03        0.998           6.4
  11      6.0575e+04       5.2549e+02       -1.1157e+04        0.998           7.0
  12      4.5764e+04       6.2679e+02       -1.4663e+04        0.998           7.6
  13      3.4574e+04       7.6656e+02       -1.9300e+04        0.998           8.1
  14      2.6121e+04       9.5120e+02       -2.5359e+04        0.998           8.5
  15      1.9734e+04       1.1819e+03       -3.3403e+04        0.999           9.0
  16      1.4909e+04       1.4412e+03       -4.3927e+04        0.999           9.4
  17      1.1263e+04       1.7961e+03       -5.7921e+04        0.999           9.8
  18      8.5095e+03       2.2542e+03       -7.6294e+04        0.999          10.3
  19      6.4288e+03       4.1198e+03       -1.0074e+05        0.999          11.0
  20      4.8569e+03       4.9343e+03       -1.3259e+05        0.999          11.6
  21      3.6694e+03       6.1283e+03       -1.7487e+05        0.998          12.1
  22      2.7722e+03       7.6213e+03       -2.3036e+05        0.999          12.5
  23      2.0944e+03       9.7566e+03       -3.0371e+05        0.999          12.9
  24      1.5823e+03       1.2764e+04       -4.0045e+05        0.998          13.4
  25      1.1954e+03       1.6996e+04       -5.2819e+05        0.997          13.8
  26      9.0311e+02       2.2977e+04       -6.9601e+05        0.998          14.3
  27      6.8229e+02       5.0656e+04       -9.2002e+05        0.998          14.9
  28      5.1546e+02       6.4222e+04       -1.2095e+06        0.998          15.6
  29      3.8943e+02       8.8197e+04       -1.5916e+06        0.998          16.1
  30      2.9421e+02       1.2227e+05       -2.0976e+06        0.997          16.5
  31      2.2227e+02       1.8767e+05       -2.7536e+06        0.998          16.9
  32      1.6793e+02       2.5472e+05       -3.6208e+06        0.996          17.4
  33      1.2687e+02       3.7718e+05       -4.7531e+06        0.998          17.8
  34      9.5846e+01       6.4950e+05       -6.1704e+06        0.996          18.4
  35      7.2411e+01       7.5483e+05       -8.1848e+06        0.998          19.4
  36      5.4092e+01       2.8529e+06       -9.4968e+06        0.997          21.6
  37      3.9533e+01       2.9441e+06       -1.3896e+07        0.993          23.8
  38      2.8174e+01       3.8681e+06       -2.0129e+07        0.963          25.3
  39      1.9503e+01       6.3094e+06       -2.7141e+07        0.973          26.9
  40      1.3058e+01       1.0476e+07       -3.6694e+07        0.982          28.8
  41      8.4196e+00       1.9810e+07       -5.2263e+07        0.961          31.0
  42      5.2123e+00       3.5436e+07       -7.2451e+07        0.987          33.7
  43      3.0979e+00       6.3780e+07       -9.6658e+07        0.998          37.1
  44      1.7783e+00       1.0768e+08       -1.2066e+08        0.997          42.1
  45      1.0000e+00       1.6431e+08       -1.3824e+08        0.986          46.7

File: 6.txt
File.......:  202109170857_c-290_eis_rt - SEP,17.2021

System.....:
Potential..:  0.017V
Current....:  -75.486pA
Temperature:  -0.7 +-0.1 C
Time.......:  08:57:42 - 08:58:32
Comment....:

              Main
time.......:  11280 s
Impedance samples

Lines:   45
Columns: 5

Number   Frequency/Hz   impedance R/Ohm   impedance I/Ohm   Significance   Time/s
   1      1.0000e+06       5.1876e+00       -3.8334e+02        0.999           0.0
   2      7.5549e+05       1.0385e+01       -5.0836e+02        0.999           1.8
   3      5.7077e+05       3.2208e+00       -6.6818e+02        0.996           2.3
   4      4.3121e+05       3.4043e+01       -8.7468e+02        0.995           3.3
   5      3.2578e+05       4.2191e+01       -1.1494e+03        0.997           4.2
   6      2.4612e+05       5.5640e+01       -1.5118e+03        0.998           4.6
   7      1.8594e+05       6.9007e+01       -1.9879e+03        0.998           5.0
   8      1.4048e+05       9.2124e+01       -2.6155e+03        0.998           5.5
   9      1.0613e+05       1.1237e+02       -3.4410e+03        0.999           5.9
  10      8.0180e+04       1.3946e+02       -4.5362e+03        0.998           6.3
  11      6.0575e+04       1.7815e+02       -5.9550e+03        0.999           6.8
  12      4.5764e+04       2.8339e+02       -7.8538e+03        0.998           7.4
  13      3.4574e+04       3.3808e+02       -1.0342e+04        0.998           8.1
  14      2.6121e+04       4.1390e+02       -1.3625e+04        0.999           8.5
  15      1.9734e+04       5.0505e+02       -1.7954e+04        0.999           8.9
  16      1.4909e+04       6.1899e+02       -2.3671e+04        0.997           9.4
  17      1.1263e+04       7.6777e+02       -3.1216e+04        0.999           9.8
  18      8.5095e+03       9.3232e+02       -4.1180e+04        0.998          10.3
  19      6.4288e+03       1.1477e+03       -5.4337e+04        0.998          10.7
  20      4.8569e+03       1.6639e+03       -7.1764e+04        0.997          11.2
  21      3.6694e+03       2.6473e+03       -9.4671e+04        0.999          11.8
  22      2.7722e+03       3.2107e+03       -1.2486e+05        0.997          12.5
  23      2.0944e+03       4.0621e+03       -1.6478e+05        0.998          12.9
  24      1.5823e+03       5.2772e+03       -2.1749e+05        0.998          13.4
  25      1.1954e+03       6.7458e+03       -2.8702e+05        0.999          13.8
  26      9.0311e+02       9.2637e+03       -3.7885e+05        0.998          14.2
  27      6.8229e+02       1.2796e+04       -4.9995e+05        0.998          14.7
  28      5.1546e+02       1.7631e+04       -6.5990e+05        0.998          15.1
  29      3.8943e+02       3.6354e+04       -8.7067e+05        0.999          15.8
  30      2.9421e+02       4.8567e+04       -1.1479e+06        0.999          16.5
  31      2.2227e+02       6.8453e+04       -1.5099e+06        0.998          16.9
  32      1.6793e+02       1.0024e+05       -1.9920e+06        0.997          17.3
  33      1.2687e+02       1.5172e+05       -2.6242e+06        0.997          17.8
  34      9.5846e+01       2.5570e+05       -3.4565e+06        0.998          18.4
  35      7.2411e+01       3.2158e+05       -4.4703e+06        0.997          18.9
  36      5.4092e+01       1.0082e+06       -5.7517e+06        0.999          21.1
  37      3.9533e+01       1.1010e+06       -8.1899e+06        0.995          24.0
  38      2.8174e+01       1.4049e+06       -1.1255e+07        0.977          25.8
  39      1.9503e+01       2.4453e+06       -1.5618e+07        0.987          27.4
  40      1.3058e+01       4.3460e+06       -2.2000e+07        0.992          29.3
  41      8.4196e+00       8.4573e+06       -3.2314e+07        0.973          31.4
  42      5.2123e+00       1.5647e+07       -4.7599e+07        0.991          34.1
  43      3.0979e+00       3.0382e+07       -7.0098e+07        0.998          37.5
  44      1.7783e+00       5.8490e+07       -9.9442e+07        0.998          42.5
  45      1.0000e+00       1.0590e+08       -1.2974e+08        0.990          47.1

File: 7.txt
File.......:  202109170901_c-291_eis_rt - SEP,17.2021

System.....:
Potential..:  -0.015V
Current....:  -1.9706pA
Temperature:  -0.7 +-0.2 C
Time.......:  09:01:03 - 09:01:51
Comment....:

              Main
time.......:  11280 s
Impedance samples

Lines:   45
Columns: 5

Number   Frequency/Hz   impedance R/Ohm   impedance I/Ohm   Significance   Time/s
   1      1.0000e+06      -2.4253e+00       -6.0240e+02        0.998           0.0
   2      7.5549e+05      -3.0137e+00       -7.9793e+02        0.996           1.8
   3      5.7077e+05      -1.3339e+00       -1.0433e+03        0.994           2.3
   4      4.3121e+05       4.9297e+01       -1.3676e+03        0.997           3.3
   5      3.2578e+05       6.8979e+01       -1.7934e+03        0.998           4.2
   6      2.4612e+05       9.6948e+01       -2.3572e+03        0.998           4.6
   7      1.8594e+05       1.2488e+02       -3.0875e+03        0.998           5.0
   8      1.4048e+05       1.7813e+02       -4.0559e+03        0.998           5.5
   9      1.0613e+05       2.1390e+02       -5.3298e+03        0.998           5.9
  10      8.0180e+04       2.7913e+02       -7.0146e+03        0.998           6.4
  11      6.0575e+04       4.5154e+02       -9.2006e+03        0.998           7.0
  12      4.5764e+04       5.4353e+02       -1.2091e+04        0.998           7.6
  13      3.4574e+04       6.6186e+02       -1.5898e+04        0.998           8.1
  14      2.6121e+04       8.2143e+02       -2.0905e+04        0.999           8.5
  15      1.9734e+04       1.0188e+03       -2.7509e+04        0.998           9.0
  16      1.4909e+04       1.2535e+03       -3.6191e+04        0.999           9.4
  17      1.1263e+04       1.5826e+03       -4.7684e+04        0.999           9.8
  18      8.5095e+03       1.9503e+03       -6.2783e+04        0.999          10.3
  19      6.4288e+03       3.4777e+03       -8.2865e+04        0.999          11.0
  20      4.8569e+03       4.1345e+03       -1.0902e+05        0.999          11.6
  21      3.6694e+03       5.2053e+03       -1.4372e+05        0.998          12.1
  22      2.7722e+03       6.4176e+03       -1.8925e+05        0.999          12.5
  23      2.0944e+03       8.1065e+03       -2.4942e+05        0.998          12.9
  24      1.5823e+03       1.0437e+04       -3.2875e+05        0.997          13.4
  25      1.1954e+03       1.3575e+04       -4.3334e+05        0.998          13.8
  26      9.0311e+02       1.8032e+04       -5.7100e+05        0.998          14.3
  27      6.8229e+02       2.4373e+04       -7.5239e+05        0.997          14.7
  28      5.1546e+02       4.7945e+04       -9.9237e+05        0.998          15.4
  29      3.8943e+02       6.2256e+04       -1.3062e+06        0.997          16.1
  30      2.9421e+02       7.9378e+04       -1.7200e+06        0.997          16.5
  31      2.2227e+02       1.2624e+05       -2.2599e+06        0.997          16.9
  32      1.6793e+02       1.5520e+05       -2.9742e+06        0.997          17.4
  33      1.2687e+02       2.0834e+05       -3.9131e+06        0.998          17.8
  34      9.5846e+01       3.0510e+05       -5.2216e+06        0.996          18.4
  35      7.2411e+01       5.8766e+05       -6.7049e+06        0.998          19.0
  36      5.4092e+01       1.1233e+06       -7.9477e+06        0.996          20.4
  37      3.9533e+01       1.7121e+06       -1.2205e+07        0.993          22.2
  38      2.8174e+01       2.3850e+06       -1.6218e+07        0.975          24.0
  39      1.9503e+01       4.1980e+06       -2.3078e+07        0.971          26.0
  40      1.3058e+01       6.2119e+06       -3.3493e+07        0.984          27.9
  41      8.4196e+00       1.2029e+07       -4.9395e+07        0.968          30.1
  42      5.2123e+00       2.4554e+07       -7.3953e+07        0.985          32.7
  43      3.0979e+00       5.2372e+07       -1.0550e+08        0.999          36.1
  44      1.7783e+00       1.0392e+08       -1.3935e+08        0.996          41.0
  45      1.0000e+00       1.7538e+08       -1.5977e+08        0.985          45.6