Folder: GlassyIonicConductorDatabase/database/experiments/HA/exp166_eis_s85_pmps_chloranil_litfsi/eis_data

Note: README.md
# GlassyIonicConductorDatabase

- Contains daily experimental data of polymeric ionic conductors
  
  - Process (as flowchart), structure, measurements, and properties

- Data are processed by machine learning tools

# Requirements

- Check for env. yml

- This database is processed by "FlowMater", which can treat graph data.
  
  - Visit the following URL for the latest version.
  
  - https://github.com/KanHatakeyama/FlowMater2

# Related paper

- TBD

# History

- version 2022.1.18: initial version

# Author

- Kan Hatakeyama-Sato
- Waseda University
- [Kan Hatakeyama](https://kanhatakeyama.github.io/)
- [satokan@toki.waseda](mailto:satokan@toki.waseda).(japan)

File: 4.txt
File.......:  202108101305_c-243_eis_rt - AUG,10.2021

System.....:
Potential..:  -0.010V
Current....:  -35.9nA
Temperature:  -0.7 +-0.1 C
Time.......:  13:05:24 - 13:06:10
Comment....:

Impedance samples

Lines:   45
Columns: 5

Number   Frequency/Hz   impedance R/Ohm   impedance I/Ohm   Significance   Time/s
   1      1.0000e+06       1.4825e+02       -4.2093e+01        0.998           0.0
   2      7.5549e+05       1.5221e+02       -3.4419e+01        0.999           1.3
   3      5.7077e+05       1.5535e+02       -2.9710e+01        0.998           1.8
   4      4.3121e+05       1.5730e+02       -2.5271e+01        1.000           2.5
   5      3.2578e+05       1.5908e+02       -2.3095e+01        1.000           3.2
   6      2.4612e+05       1.6049e+02       -2.2182e+01        1.000           3.7
   7      1.8594e+05       1.6203e+02       -2.2552e+01        1.000           4.1
   8      1.4048e+05       1.6387e+02       -2.4172e+01        1.000           4.6
   9      1.0613e+05       1.6576e+02       -2.6985e+01        1.000           5.0
  10      8.0180e+04       1.6822e+02       -3.1143e+01        1.000           5.5
  11      6.0575e+04       1.7114e+02       -3.6791e+01        1.000           5.9
  12      4.5764e+04       1.7516e+02       -4.3991e+01        1.000           6.3
  13      3.4574e+04       1.8022e+02       -5.3067e+01        1.000           6.8
  14      2.6121e+04       1.8648e+02       -6.3984e+01        1.000           7.3
  15      1.9734e+04       1.9432e+02       -7.7232e+01        1.000           7.7
  16      1.4909e+04       2.0407e+02       -9.3014e+01        1.000           8.2
  17      1.1263e+04       2.1613e+02       -1.1179e+02        0.999           8.6
  18      8.5095e+03       2.3055e+02       -1.3384e+02        1.000           9.1
  19      6.4288e+03       2.4782e+02       -1.5998e+02        0.999           9.6
  20      4.8569e+03       2.6814e+02       -1.9066e+02        0.999          10.0
  21      3.6694e+03       2.9237e+02       -2.2661e+02        0.999          10.5
  22      2.7722e+03       3.2011e+02       -2.7005e+02        0.999          10.9
  23      2.0944e+03       3.5248e+02       -3.2211e+02        0.998          11.4
  24      1.5823e+03       3.9037e+02       -3.8526e+02        0.998          11.8
  25      1.1954e+03       4.3416e+02       -4.6243e+02        1.000          12.3
  26      9.0311e+02       4.8212e+02       -5.5258e+02        0.999          13.0
  27      6.8229e+02       5.4265e+02       -6.6779e+02        0.998          13.7
  28      5.1546e+02       6.1537e+02       -8.0964e+02        0.999          14.1
  29      3.8943e+02       7.0513e+02       -9.8423e+02        0.998          14.6
  30      2.9421e+02       8.1497e+02       -1.1983e+03        0.998          15.1
  31      2.2227e+02       9.5349e+02       -1.4593e+03        0.998          15.5
  32      1.6793e+02       1.1259e+03       -1.7765e+03        0.998          16.0
  33      1.2687e+02       1.3431e+03       -2.1586e+03        0.998          16.4
  34      9.5846e+01       1.6175e+03       -2.6165e+03        0.998          17.0
  35      7.2411e+01       1.9622e+03       -3.1570e+03        0.998          17.5
  36      5.4092e+01       2.3991e+03       -3.8204e+03        0.998          18.9
  37      3.9533e+01       2.9964e+03       -4.6613e+03        0.998          20.7
  38      2.8174e+01       3.8054e+03       -5.7413e+03        0.998          22.6
  39      1.9503e+01       4.9240e+03       -7.1459e+03        0.998          24.6
  40      1.3058e+01       6.4831e+03       -8.9992e+03        0.998          26.5
  41      8.4196e+00       8.6900e+03       -1.1479e+04        0.997          28.7
  42      5.2123e+00       1.1852e+04       -1.4855e+04        0.997          31.4
  43      3.0979e+00       1.6384e+04       -1.9431e+04        0.997          34.8
  44      1.7783e+00       2.2915e+04       -2.5694e+04        0.997          39.7
  45      1.0000e+00       3.1883e+04       -3.3906e+04        0.997          44.4

File: 8.txt
File.......:  202108101308_c-244_eis_rt - AUG,10.2021

System.....:
Potential..:  -0.002V
Current....:  -45.528nA
Temperature:  -0.7 +-0.1 C
Time.......:  13:08:32 - 13:09:18
Comment....:

Impedance samples

Lines:   45
Columns: 5

Number   Frequency/Hz   impedance R/Ohm   impedance I/Ohm   Significance   Time/s
   1      1.0000e+06       9.1775e+01       -2.9075e+01        0.998           0.0
   2      7.5549e+05       9.4973e+01       -2.8971e+01        1.000           1.3
   3      5.7077e+05       9.8082e+01       -2.9779e+01        0.999           1.8
   4      4.3121e+05       1.0144e+02       -3.1746e+01        1.000           2.5
   5      3.2578e+05       1.0509e+02       -3.4881e+01        1.000           3.2
   6      2.4612e+05       1.0923e+02       -3.9178e+01        1.000           3.7
   7      1.8594e+05       1.1396e+02       -4.4723e+01        1.000           4.1
   8      1.4048e+05       1.1953e+02       -5.1798e+01        1.000           4.6
   9      1.0613e+05       1.2605e+02       -6.0434e+01        1.000           5.0
  10      8.0180e+04       1.3375e+02       -7.1044e+01        1.000           5.5
  11      6.0575e+04       1.4270e+02       -8.3746e+01        1.000           5.9
  12      4.5764e+04       1.5348e+02       -9.9159e+01        1.000           6.3
  13      3.4574e+04       1.6632e+02       -1.1764e+02        1.000           6.8
  14      2.6121e+04       1.8164e+02       -1.3954e+02        0.999           7.3
  15      1.9734e+04       2.0008e+02       -1.6568e+02        0.999           7.7
  16      1.4909e+04       2.2204e+02       -1.9656e+02        0.999           8.2
  17      1.1263e+04       2.4866e+02       -2.3348e+02        1.000           8.6
  18      8.5095e+03       2.8047e+02       -2.7658e+02        1.000           9.1
  19      6.4288e+03       3.1864e+02       -3.2759e+02        0.999           9.6
  20      4.8569e+03       3.6452e+02       -3.8690e+02        0.998          10.0
  21      3.6694e+03       4.2035e+02       -4.5519e+02        1.000          10.5
  22      2.7722e+03       4.8222e+02       -5.3096e+02        1.000          11.1
  23      2.0944e+03       5.5982e+02       -6.2223e+02        1.000          11.8
  24      1.5823e+03       6.5201e+02       -7.2721e+02        0.999          12.3
  25      1.1954e+03       7.6012e+02       -8.4775e+02        0.998          12.8
  26      9.0311e+02       8.8783e+02       -9.8536e+02        0.999          13.2
  27      6.8229e+02       1.0365e+03       -1.1425e+03        0.999          13.7
  28      5.1546e+02       1.2097e+03       -1.3216e+03        0.997          14.1
  29      3.8943e+02       1.4130e+03       -1.5257e+03        0.997          14.6
  30      2.9421e+02       1.6466e+03       -1.7568e+03        0.997          15.1
  31      2.2227e+02       1.9188e+03       -2.0183e+03        0.996          15.5
  32      1.6793e+02       2.2301e+03       -2.3161e+03        0.996          16.0
  33      1.2687e+02       2.5882e+03       -2.6537e+03        0.995          16.4
  34      9.5846e+01       3.0016e+03       -3.0388e+03        0.994          17.0
  35      7.2411e+01       3.4744e+03       -3.4718e+03        0.994          17.5
  36      5.4092e+01       4.0225e+03       -3.9849e+03        0.993          18.9
  37      3.9533e+01       4.7181e+03       -4.6215e+03        0.992          20.7
  38      2.8174e+01       5.5972e+03       -5.4150e+03        0.992          22.5
  39      1.9503e+01       6.7262e+03       -6.4185e+03        0.991          24.5
  40      1.3058e+01       8.2050e+03       -7.7135e+03        0.990          26.3
  41      8.4196e+00       1.0179e+04       -9.4066e+03        0.989          28.6
  42      5.2123e+00       1.2869e+04       -1.1671e+04        0.989          31.2
  43      3.0979e+00       1.6488e+04       -1.4640e+04        0.988          34.5
  44      1.7783e+00       2.1482e+04       -1.8662e+04        0.989          39.5
  45      1.0000e+00       2.7965e+04       -2.3802e+04        0.987          44.2

File: 10.txt
File.......:  202108101311_c-245_eis_rt - AUG,10.2021

System.....:
Potential..:  0.005V
Current....:  -3.7416nA
Temperature:  -0.7 +-0.1 C
Time.......:  13:11:16 - 13:12:04
Comment....:

Impedance samples

Lines:   45
Columns: 5

Number   Frequency/Hz   impedance R/Ohm   impedance I/Ohm   Significance   Time/s
   1      1.0000e+06       2.6458e+01       -4.6226e+02        0.996           0.0
   2      7.5549e+05       5.0328e+01       -6.0238e+02        0.998           1.8
   3      5.7077e+05       4.0166e+01       -7.9374e+02        0.994           2.3
   4      4.3121e+05       8.7760e+01       -1.0241e+03        0.996           3.3
   5      3.2578e+05       1.1709e+02       -1.3321e+03        0.998           4.2
   6      2.4612e+05       1.5914e+02       -1.7390e+03        0.998           4.7
   7      1.8594e+05       1.9940e+02       -2.2602e+03        0.997           5.1
   8      1.4048e+05       2.5731e+02       -2.9410e+03        0.999           5.5
   9      1.0613e+05       3.3188e+02       -3.8569e+03        0.998           6.0
  10      8.0180e+04       4.2954e+02       -5.0267e+03        0.999           6.4
  11      6.0575e+04       5.6381e+02       -6.5347e+03        0.998           6.9
  12      4.5764e+04       7.9828e+02       -8.5415e+03        0.999           7.3
  13      3.4574e+04       1.0310e+03       -1.1188e+04        0.997           7.8
  14      2.6121e+04       1.5161e+03       -1.4589e+04        0.997           8.5
  15      1.9734e+04       2.0933e+03       -1.9043e+04        0.997           9.2
  16      1.4909e+04       2.9503e+03       -2.4856e+04        0.999           9.6
  17      1.1263e+04       4.3289e+03       -3.2420e+04        0.999          10.1
  18      8.5095e+03       6.4617e+03       -4.2246e+04        0.997          10.5
  19      6.4288e+03       9.6573e+03       -5.4766e+04        0.998          11.0
  20      4.8569e+03       1.4973e+04       -7.0669e+04        0.998          11.4
  21      3.6694e+03       2.3970e+04       -9.0581e+04        0.999          12.1
  22      2.7722e+03       3.6816e+04       -1.1471e+05        0.998          12.8
  23      2.0944e+03       5.6343e+04       -1.4272e+05        0.997          13.3
  24      1.5823e+03       8.4935e+04       -1.7302e+05        0.998          13.7
  25      1.1954e+03       1.2405e+05       -2.0224e+05        0.999          14.2
  26      9.0311e+02       1.7314e+05       -2.2656e+05        0.998          14.7
  27      6.8229e+02       2.2870e+05       -2.4157e+05        0.999          15.1
  28      5.1546e+02       2.8628e+05       -2.4606e+05        1.000          15.6
  29      3.8943e+02       3.4109e+05       -2.4137e+05        1.000          16.0
  30      2.9421e+02       3.9022e+05       -2.3136e+05        0.999          16.5
  31      2.2227e+02       4.3584e+05       -2.2159e+05        1.000          17.0
  32      1.6793e+02       4.7282e+05       -2.0905e+05        1.000          17.4
  33      1.2687e+02       5.0862e+05       -1.9836e+05        0.999          17.9
  34      9.5846e+01       5.4369e+05       -1.9208e+05        0.999          18.4
  35      7.2411e+01       5.7518e+05       -1.8195e+05        1.000          19.0
  36      5.4092e+01       5.8350e+05       -1.7254e+05        0.999          20.4
  37      3.9533e+01       6.4070e+05       -1.6668e+05        0.999          22.1
  38      2.8174e+01       6.6933e+05       -1.5339e+05        0.994          24.0
  39      1.9503e+01       7.0073e+05       -1.4906e+05        0.997          25.9
  40      1.3058e+01       7.3289e+05       -1.4903e+05        0.999          27.8
  41      8.4196e+00       7.6711e+05       -1.5123e+05        0.997          30.0
  42      5.2123e+00       8.0381e+05       -1.6279e+05        0.999          32.6
  43      3.0979e+00       8.4916e+05       -1.8611e+05        1.000          35.9
  44      1.7783e+00       9.0354e+05       -2.2528e+05        1.000          40.8
  45      1.0000e+00       9.7201e+05       -2.8685e+05        1.000          45.4