Folder: GlassyIonicConductorDatabase/program/database/experiments/MU/xrd/1102/parallel/liftfsi/xrd

Note: README.md
# GlassyIonicConductorDatabase

- Contains daily experimental data of polymeric ionic conductors
  
  - Process (as flowchart), structure, measurements, and properties

- Data are processed by machine learning tools

# Requirements

- Check for env. yml

- This database is processed by "FlowMater", which can treat graph data.
  
  - Visit the following URL for the latest version.
  
  - https://github.com/KanHatakeyama/FlowMater2

# Related paper

- TBD

# History

- version 2022.1.18: initial version

# Author

- Kan Hatakeyama-Sato
- Waseda University
- [Kan Hatakeyama](https://kanhatakeyama.github.io/)
- [satokan@toki.waseda](mailto:satokan@toki.waseda).(japan)

File: 50.TXT
Sample
Comments
Filename	C:\Data\西出研\梅木\20211102オペ\LiFTFSI_01_0001_0050-0_C_2θ.raw
Goniometer	SmartLab(In-plane)
Attachment	標準Zステージ
Monochromater	None
X	0
Y	0
Z	0.00908
ScanningMode	2Theta
ScanningType	Continuos Scanning
X-Ray	40kV/30mA
入射スリット	0.300mm
受光スリット1	20.000mm
受光スリット2	20.000mm
None
Start	5
Stop	60
Step	0.02
Speed	21.6746
Theta	0
5	2998.32
5.2	3395.68
5.4	3160.88
5.6	3395.68
5.8	3124.75
6	3160.88
6.2	2962.19
6.4	2871.88
6.6	3034.44
6.8	3034.44
7	2871.88
7.2	3016.38
7.4	2817.69
7.6	3215.06
7.8	3287.31
8	2853.82
8.2	2655.14
8.4	2709.32
8.6	3034.44
8.8	2998.32
9	3774.99
9.2	3251.19
9.4	3395.68
9.6	2817.69
9.8	2998.32
10	2817.69
10.2	2582.89
10.4	3088.63
10.6	2619.01
10.8	2709.32
11	2980.25
11.2	2817.69
11.4	2745.45
11.6	2330.02
11.8	3016.38
12	2835.76
12.2	2619.01
12.4	2691.26
12.6	3233.12
12.8	2402.27
13	2257.77
13.2	2835.76
13.4	2384.2
13.6	2311.95
13.8	2167.46
14	2077.15
14.2	2348.08
14.4	2474.51
14.6	2600.95
14.8	2402.27
15	2799.63
15.2	2239.71
15.4	2185.52
15.6	2059.08
15.8	2149.4
16	2655.14
16.2	2727.38
16.4	2077.15
16.6	1914.59
16.8	1950.71
17	1824.28
17.2	1950.71
17.4	2131.33
17.6	1860.4
17.8	2022.96
18	7459.67
18.2	2348.08
18.4	2456.45
18.6	6412.06
18.8	2275.83
19	1842.34
19.2	3576.31
19.4	2528.7
19.6	1824.28
19.8	1878.46
20	2077.15
20.2	1986.84
20.4	1535.28
20.6	2022.96
20.8	1968.77
21	3720.8
21.2	2311.95
21.4	1752.03
21.6	1914.59
21.8	2095.21
22	1950.71
22.2	1733.97
22.4	1625.59
22.6	1571.41
22.8	2004.9
23	1625.59
23.2	2221.64
23.4	2095.21
23.6	1444.97
23.8	1444.97
24	1481.1
24.2	1535.28
24.4	1318.54
24.6	1408.85
24.8	1300.47
25	1282.41
25.2	1444.97
25.4	2727.38
25.6	3233.12
25.8	3413.75
26	1571.41
26.2	1589.47
26.4	1968.77
26.6	1155.98
26.8	1282.41
27	939.232
27.2	1047.6
27.4	1842.34
27.6	4352.98
27.8	1210.16
28	1354.66
28.2	1228.23
28.4	1228.23
28.6	957.294
28.8	1029.54
29	903.107
29.2	885.045
29.4	830.859
29.6	939.232
29.8	812.797
30	1210.16
30.2	939.232
30.4	812.797
30.6	1065.67
30.8	957.294
31	957.294
31.2	740.548
31.4	1137.92
31.6	866.983
31.8	650.237
32	632.175
32.2	758.61
32.4	1264.35
32.6	1029.54
32.8	957.294
33	1390.79
33.2	1336.6
33.4	523.802
33.6	794.734
33.8	830.859
34	885.045
34.2	614.113
34.4	614.113
34.6	505.74
34.8	668.299
35	794.734
35.2	559.927
35.4	415.429
35.6	541.864
35.8	614.113
36	704.424
36.2	722.486
36.4	559.927
36.6	830.859
36.8	1174.04
37	632.175
37.2	1390.79
37.4	577.989
37.6	704.424
37.8	433.492
38	1101.79
38.2	1047.6
38.4	794.734
38.6	523.802
38.8	686.362
39	559.927
39.2	1300.47
39.4	1354.66
39.6	686.362
39.8	559.927
40	704.424
40.2	668.299
40.4	252.87
40.6	451.554
40.8	505.74
41	614.113
41.2	288.994
41.4	505.74
41.6	650.237
41.8	848.921
42	632.175
42.2	451.554
42.4	559.927
42.6	379.305
42.8	541.864
43	577.989
43.2	523.802
43.4	379.305
43.6	379.305
43.8	596.051
44	451.554
44.2	523.802
44.4	632.175
44.6	451.554
44.8	541.864
45	433.492
45.2	415.429
45.4	451.554
45.6	379.305
45.8	270.932
46	379.305
46.2	288.994
46.4	632.175
46.6	451.554
46.8	433.492
47	451.554
47.2	379.305
47.4	469.616
47.6	343.181
47.8	614.113
48	433.492
48.2	397.367
48.4	397.367
48.6	577.989
48.8	397.367
49	343.181
49.2	288.994
49.4	307.056
49.6	325.119
49.8	397.367
50	487.678
50.2	397.367
50.4	234.808
50.6	361.243
50.8	415.429
51	559.927
51.2	433.492
51.4	307.056
51.6	343.181
51.8	415.429
52	307.056
52.2	487.678
52.4	379.305
52.6	288.994
52.8	252.87
53	415.429
53.2	234.808
53.4	451.554
53.6	361.243
53.8	361.243
54	325.119
54.2	325.119
54.4	361.243
54.6	704.424
54.8	487.678
55	343.181
55.2	379.305
55.4	126.435
55.6	234.808
55.8	126.435
56	270.932
56.2	487.678
56.4	270.932
56.6	234.808
56.8	415.429
57	270.932
57.2	343.181
57.4	162.559
57.6	252.87
57.8	307.056
58	325.119
58.2	234.808
58.4	325.119
58.6	252.87
58.8	288.994
59	288.994
59.2	325.119
59.4	361.243
59.6	216.746
59.8	451.554
60	361.243

File: 80.TXT
Sample
Comments
Filename	C:\Data\西出研\梅木\20211102オペ\LiFTFSI_02_0001_0079-2_C_2θ.raw
Goniometer	SmartLab(In-plane)
Attachment	標準Zステージ
Monochromater	None
X	0
Y	0
Z	0.00908
ScanningMode	2Theta
ScanningType	Continuos Scanning
X-Ray	40kV/30mA
入射スリット	0.300mm
受光スリット1	20.000mm
受光スリット2	20.000mm
None
Start	5
Stop	60
Step	0.02
Speed	21.6746
Theta	0
5	3811.11
5.2	3215.06
5.4	3106.69
5.6	3467.93
5.8	3594.37
6	2889.94
6.2	3341.5
6.4	3215.06
6.6	2980.25
6.8	2817.69
7	3269.25
7.2	3016.38
7.4	3034.44
7.6	3070.56
7.8	3413.75
8	3142.81
8.2	3215.06
8.4	3359.56
8.6	2420.33
8.8	2998.32
9	3251.19
9.2	3774.99
9.4	3178.94
9.6	2944.13
9.8	2528.7
10	2546.76
10.2	3197
10.4	2980.25
10.6	2691.26
10.8	2799.63
11	2980.25
11.2	2673.2
11.4	3016.38
11.6	2908.01
11.8	2564.82
12	2637.07
12.2	2492.58
12.4	2655.14
12.6	2908.01
12.8	2528.7
13	2330.02
13.2	2474.51
13.4	2420.33
13.6	2510.64
13.8	2673.2
14	2763.51
14.2	2691.26
14.4	2420.33
14.6	2492.58
14.8	2600.95
15	2655.14
15.2	2366.14
15.4	2474.51
15.6	2077.15
15.8	2167.46
16	2980.25
16.2	2059.08
16.4	2113.27
16.6	2113.27
16.8	2492.58
17	2221.64
17.2	2095.21
17.4	2113.27
17.6	2167.46
17.8	2456.45
18	7477.73
18.2	2167.46
18.4	3612.43
18.6	2745.45
18.8	2167.46
19	2077.15
19.2	5671.51
19.4	2077.15
19.6	1860.4
19.8	2059.08
20	2528.7
20.2	1770.09
20.4	2041.02
20.6	1733.97
20.8	1463.03
21	6213.38
21.2	2203.58
21.4	1968.77
21.6	1788.15
21.8	1697.84
22	1535.28
22.2	1679.78
22.4	1661.72
22.6	1770.09
22.8	1499.16
23	1589.47
23.2	1715.9
23.4	1914.59
23.6	1661.72
23.8	1481.1
24	1499.16
24.2	1390.79
24.4	1571.41
24.6	1354.66
24.8	1210.16
25	1679.78
25.2	1607.53
25.4	2889.94
25.6	6412.06
25.8	1372.72
26	1643.66
26.2	1625.59
26.4	1770.09
26.6	1463.03
26.8	1264.35
27	1192.1
27.2	993.418
27.4	2817.69
27.6	2673.2
27.8	1065.67
28	1083.73
28.2	1047.6
28.4	1282.41
28.6	939.232
28.8	1390.79
29	1065.67
29.2	1119.85
29.4	776.672
29.6	740.548
29.8	1300.47
30	1300.47
30.2	740.548
30.4	1174.04
30.6	1029.54
30.8	957.294
31	830.859
31.2	722.486
31.4	1047.6
31.6	975.356
31.8	866.983
32	559.927
32.2	812.797
32.4	1643.66
32.6	830.859
32.8	1553.34
33	1083.73
33.2	939.232
33.4	776.672
33.6	758.61
33.8	812.797
34	650.237
34.2	740.548
34.4	650.237
34.6	758.61
34.8	812.797
35	632.175
35.2	650.237
35.4	505.74
35.6	632.175
35.8	614.113
36	830.859
36.2	758.61
36.4	776.672
36.6	921.169
36.8	1083.73
37	1390.79
37.2	1264.35
37.4	740.548
37.6	830.859
37.8	704.424
38	885.045
38.2	957.294
38.4	487.678
38.6	614.113
38.8	686.362
39	758.61
39.2	1444.97
39.4	523.802
39.6	505.74
39.8	668.299
40	541.864
40.2	379.305
40.4	451.554
40.6	397.367
40.8	379.305
41	397.367
41.2	307.056
41.4	668.299
41.6	830.859
41.8	361.243
42	559.927
42.2	487.678
42.4	433.492
42.6	596.051
42.8	776.672
43	776.672
43.2	415.429
43.4	433.492
43.6	740.548
43.8	541.864
44	397.367
44.2	433.492
44.4	343.181
44.6	433.492
44.8	451.554
45	234.808
45.2	541.864
45.4	415.429
45.6	379.305
45.8	325.119
46	451.554
46.2	632.175
46.4	523.802
46.6	325.119
46.8	361.243
47	288.994
47.2	451.554
47.4	361.243
47.6	361.243
47.8	776.672
48	361.243
48.2	307.056
48.4	307.056
48.6	469.616
48.8	307.056
49	343.181
49.2	361.243
49.4	270.932
49.6	343.181
49.8	433.492
50	469.616
50.2	307.056
50.4	361.243
50.6	433.492
50.8	397.367
51	379.305
51.2	379.305
51.4	234.808
51.6	397.367
51.8	361.243
52	469.616
52.2	415.429
52.4	451.554
52.6	325.119
52.8	325.119
53	234.808
53.2	415.429
53.4	361.243
53.6	415.429
53.8	234.808
54	307.056
54.2	361.243
54.4	559.927
54.6	523.802
54.8	216.746
55	270.932
55.2	451.554
55.4	270.932
55.6	361.243
55.8	288.994
56	397.367
56.2	270.932
56.4	307.056
56.6	325.119
56.8	379.305
57	505.74
57.2	361.243
57.4	325.119
57.6	415.429
57.8	307.056
58	234.808
58.2	198.684
58.4	451.554
58.6	397.367
58.8	162.559
59	397.367
59.2	343.181
59.4	270.932
59.6	541.864
59.8	451.554
60	505.74

File: 100.TXT
Sample
Comments
Filename	C:\Data\西出研\梅木\20211102オペ\LiFTFSI_03_0001_0099-4_C_2θ.raw
Goniometer	SmartLab(In-plane)
Attachment	標準Zステージ
Monochromater	None
X	0
Y	0
Z	0.00908
ScanningMode	2Theta
ScanningType	Continuos Scanning
X-Ray	40kV/30mA
入射スリット	0.300mm
受光スリット1	20.000mm
受光スリット2	20.000mm
None
Start	5
Stop	60
Step	0.02
Speed	21.6746
Theta	0
5	3811.11
5.2	3558.24
5.4	2980.25
5.6	3449.87
5.8	3287.31
6	3124.75
6.2	3215.06
6.4	3070.56
6.6	3449.87
6.8	3142.81
7	2926.07
7.2	3052.5
7.4	3485.99
7.6	3215.06
7.8	2853.82
8	3233.12
8.2	2926.07
8.4	3359.56
8.6	2926.07
8.8	2871.88
9	2980.25
9.2	3395.68
9.4	2691.26
9.6	3377.62
9.8	2673.2
10	2637.07
10.2	3034.44
10.4	2528.7
10.6	2582.89
10.8	2745.45
11	2962.19
11.2	2709.32
11.4	2781.57
11.6	2113.27
11.8	2456.45
12	2221.64
12.2	2709.32
12.4	3016.38
12.6	2673.2
12.8	2691.26
13	2582.89
13.2	2185.52
13.4	2655.14
13.6	2221.64
13.8	2763.51
14	2149.4
14.2	2420.33
14.4	2510.64
14.6	2095.21
14.8	2167.46
15	2727.38
15.2	2330.02
15.4	2113.27
15.6	2402.27
15.8	2619.01
16	3359.56
16.2	2293.89
16.4	2402.27
16.6	2275.83
16.8	2077.15
17	2059.08
17.2	2275.83
17.4	2203.58
17.6	2203.58
17.8	3016.38
18	5761.82
18.2	2420.33
18.4	5256.08
18.6	2348.08
18.8	2149.4
19	2492.58
19.2	5761.82
19.4	2004.9
19.6	2167.46
19.8	2022.96
20	2600.95
20.2	1806.21
20.4	1824.28
20.6	2149.4
20.8	2077.15
21	7549.98
21.2	1896.53
21.4	1517.22
21.6	2113.27
21.8	1715.9
22	1589.47
22.2	1715.9
22.4	1625.59
22.6	2077.15
22.8	1625.59
23	1481.1
23.2	1444.97
23.4	1788.15
23.6	1553.34
23.8	1228.23
24	1715.9
24.2	1444.97
24.4	1318.54
24.6	1354.66
24.8	1372.72
25	1174.04
25.2	2041.02
25.4	3504.06
25.6	4389.1
25.8	1228.23
26	1553.34
26.2	2203.58
26.4	1372.72
26.6	1354.66
26.8	1192.1
27	1065.67
27.2	1444.97
27.4	4226.54
27.6	1589.47
27.8	1517.22
28	1372.72
28.2	1029.54
28.4	1011.48
28.6	921.169
28.8	939.232
29	1047.6
29.2	1083.73
29.4	957.294
29.6	776.672
29.8	1408.85
30	632.175
30.2	1011.48
30.4	1571.41
30.6	758.61
30.8	921.169
31	1011.48
31.2	1192.1
31.4	957.294
31.6	921.169
31.8	704.424
32	722.486
32.2	975.356
32.4	1282.41
32.6	1444.97
32.8	1390.79
33	812.797
33.2	668.299
33.4	885.045
33.6	1011.48
33.8	885.045
34	939.232
34.2	704.424
34.4	740.548
34.6	577.989
34.8	776.672
35	632.175
35.2	866.983
35.4	686.362
35.6	397.367
35.8	848.921
36	885.045
36.2	487.678
36.4	668.299
36.6	903.107
36.8	1137.92
37	1047.6
37.2	794.734
37.4	830.859
37.6	397.367
37.8	1083.73
38	722.486
38.2	1029.54
38.4	577.989
38.6	632.175
38.8	812.797
39	939.232
39.2	1481.1
39.4	704.424
39.6	505.74
39.8	559.927
40	668.299
40.2	415.429
40.4	433.492
40.6	523.802
40.8	288.994
41	469.616
41.2	704.424
41.4	740.548
41.6	722.486
41.8	722.486
42	361.243
42.2	451.554
42.4	487.678
42.6	577.989
42.8	794.734
43	596.051
43.2	433.492
43.4	361.243
43.6	614.113
43.8	451.554
44	288.994
44.2	433.492
44.4	415.429
44.6	469.616
44.8	505.74
45	361.243
45.2	487.678
45.4	343.181
45.6	270.932
45.8	343.181
46	397.367
46.2	541.864
46.4	379.305
46.6	415.429
46.8	307.056
47	379.305
47.2	523.802
47.4	433.492
47.6	288.994
47.8	415.429
48	307.056
48.2	415.429
48.4	288.994
48.6	397.367
48.8	234.808
49	270.932
49.2	343.181
49.4	252.87
49.6	379.305
49.8	397.367
50	252.87
50.2	451.554
50.4	505.74
50.6	469.616
50.8	379.305
51	288.994
51.2	361.243
51.4	379.305
51.6	288.994
51.8	234.808
52	379.305
52.2	307.056
52.4	415.429
52.6	343.181
52.8	379.305
53	433.492
53.2	252.87
53.4	361.243
53.6	234.808
53.8	288.994
54	397.367
54.2	541.864
54.4	559.927
54.6	361.243
54.8	361.243
55	433.492
55.2	180.621
55.4	325.119
55.6	288.994
55.8	397.367
56	288.994
56.2	343.181
56.4	343.181
56.6	433.492
56.8	559.927
57	198.684
57.2	234.808
57.4	198.684
57.6	325.119
57.8	252.87
58	343.181
58.2	270.932
58.4	270.932
58.6	307.056
58.8	307.056
59	234.808
59.2	325.119
59.4	288.994
59.6	433.492
59.8	379.305
60	234.808