Folder: GlassyIonicConductorDatabase/program/database/experiments/MU/normal/1029_ppo_chloranil_liftfsi_longer_ball_mill/eis/eis_data

Note: README.md
# GlassyIonicConductorDatabase

- Contains daily experimental data of polymeric ionic conductors
  
  - Process (as flowchart), structure, measurements, and properties

- Data are processed by machine learning tools

# Requirements

- Check for env. yml

- This database is processed by "FlowMater", which can treat graph data.
  
  - Visit the following URL for the latest version.
  
  - https://github.com/KanHatakeyama/FlowMater2

# Related paper

- TBD

# History

- version 2022.1.18: initial version

# Author

- Kan Hatakeyama-Sato
- Waseda University
- [Kan Hatakeyama](https://kanhatakeyama.github.io/)
- [satokan@toki.waseda](mailto:satokan@toki.waseda).(japan)

File: 3.txt
File.......:  cell3ppoclliftfsi20wt - OCT,30.2021

System.....:
Potential..:  0.042V
Current....:  -38.91nA
Temperature:  -0.7 +-0.0 C
Time.......:  15:01:28 - 15:02:15
Comment....:

              Main
time.......:  22680 s
Impedance samples

Lines:   45
Columns: 5

Number   Frequency/Hz   impedance R/Ohm   impedance I/Ohm   Significance   Time/s
   1      1.0000e+06       3.9612e+02       -2.5962e+02        0.999           0.0
   2      7.5549e+05       4.5847e+02       -2.2752e+02        0.999           1.3
   3      5.7077e+05       5.1434e+02       -2.0242e+02        0.998           1.8
   4      4.3121e+05       5.8911e+02       -1.6732e+02        1.000           2.5
   5      3.2578e+05       6.2617e+02       -1.3938e+02        1.000           3.2
   6      2.4612e+05       6.4162e+02       -1.1443e+02        1.000           3.7
   7      1.8594e+05       6.5169e+02       -9.5931e+01        1.000           4.1
   8      1.4048e+05       6.1520e+02       -7.9628e+01        1.000           4.6
   9      1.0613e+05       6.1849e+02       -7.0434e+01        1.000           5.0
  10      8.0180e+04       6.1636e+02       -6.3949e+01        1.000           5.5
  11      6.0575e+04       6.4846e+02       -6.4094e+01        1.000           5.9
  12      4.5764e+04       6.4816e+02       -6.4385e+01        1.000           6.3
  13      3.4574e+04       6.5311e+02       -6.8049e+01        1.000           6.8
  14      2.6121e+04       6.5093e+02       -7.1442e+01        1.000           7.5
  15      1.9734e+04       6.6840e+02       -7.9589e+01        1.000           8.2
  16      1.4909e+04       6.8167e+02       -8.9871e+01        1.000           8.6
  17      1.1263e+04       7.0146e+02       -1.0343e+02        1.000           9.1
  18      8.5095e+03       7.2282e+02       -1.2004e+02        1.000           9.5
  19      6.4288e+03       7.4108e+02       -1.4060e+02        1.000          10.0
  20      4.8569e+03       7.3329e+02       -1.6509e+02        1.000          10.5
  21      3.6694e+03       7.6681e+02       -1.9361e+02        1.000          10.9
  22      2.7722e+03       7.8783e+02       -2.2963e+02        1.000          11.4
  23      2.0944e+03       8.1378e+02       -2.7293e+02        1.000          11.8
  24      1.5823e+03       8.4077e+02       -3.2534e+02        1.000          12.3
  25      1.1954e+03       8.7575e+02       -3.8984e+02        1.000          12.8
  26      9.0311e+02       9.1888e+02       -4.6859e+02        1.000          13.2
  27      6.8229e+02       9.6751e+02       -5.6622e+02        1.000          13.7
  28      5.1546e+02       1.0188e+03       -6.8742e+02        1.000          14.1
  29      3.8943e+02       1.0824e+03       -8.3798e+02        0.999          14.6
  30      2.9421e+02       1.1584e+03       -1.0265e+03        1.000          15.1
  31      2.2227e+02       1.2484e+03       -1.2613e+03        0.999          15.5
  32      1.6793e+02       1.3547e+03       -1.5559e+03        0.999          16.0
  33      1.2687e+02       1.4836e+03       -1.9238e+03        0.998          16.4
  34      9.5846e+01       1.6657e+03       -2.3832e+03        0.998          17.0
  35      7.2411e+01       1.8928e+03       -2.9543e+03        0.998          17.5
  36      5.4092e+01       2.1839e+03       -3.6949e+03        0.997          18.9
  37      3.9533e+01       2.5914e+03       -4.6997e+03        0.997          20.7
  38      2.8174e+01       3.1747e+03       -6.0816e+03        0.997          22.5
  39      1.9503e+01       4.0306e+03       -8.0317e+03        0.996          24.6
  40      1.3058e+01       5.3252e+03       -1.0831e+04        0.996          26.4
  41      8.4196e+00       7.3808e+03       -1.4926e+04        0.995          28.7
  42      5.2123e+00       1.0692e+04       -2.1004e+04        0.995          31.4
  43      3.0979e+00       1.6060e+04       -3.0027e+04        0.995          34.8
  44      1.7783e+00       2.4776e+04       -4.3372e+04        0.995          39.8
  45      1.0000e+00       3.8252e+04       -6.2251e+04        0.994          44.4

File: 4.txt
File.......:  cell4ppoclliftfsi20wt - OCT,30.2021

System.....:
Potential..:  0.010V
Current....:  -48.138nA
Temperature:  -0.7 +-0.1 C
Time.......:  15:05:33 - 15:06:20
Comment....:

              Main
time.......:  22680 s
Impedance samples

Lines:   45
Columns: 5

Number   Frequency/Hz   impedance R/Ohm   impedance I/Ohm   Significance   Time/s
   1      1.0000e+06       1.4894e+02       -3.6432e+01        0.999           0.0
   2      7.5549e+05       1.5230e+02       -2.8851e+01        0.999           1.0
   3      5.7077e+05       1.5492e+02       -2.3607e+01        0.999           1.5
   4      4.3121e+05       1.5606e+02       -1.9043e+01        1.000           2.3
   5      3.2578e+05       1.5717e+02       -1.5925e+01        1.000           3.0
   6      2.4612e+05       1.5806e+02       -1.3776e+01        1.000           3.4
   7      1.8594e+05       1.5885e+02       -1.2464e+01        1.000           3.8
   8      1.4048e+05       1.5968e+02       -1.1862e+01        1.000           4.3
   9      1.0613e+05       1.6047e+02       -1.1912e+01        1.000           4.8
  10      8.0180e+04       1.6143e+02       -1.2612e+01        1.000           5.2
  11      6.0575e+04       1.6238e+02       -1.4058e+01        1.000           5.7
  12      4.5764e+04       1.6367e+02       -1.6077e+01        1.000           6.1
  13      3.4574e+04       1.6519e+02       -1.8878e+01        1.000           6.6
  14      2.6121e+04       1.6697e+02       -2.2428e+01        1.000           7.0
  15      1.9734e+04       1.6914e+02       -2.7012e+01        1.000           7.5
  16      1.4909e+04       1.7174e+02       -3.2784e+01        1.000           7.9
  17      1.1263e+04       1.7491e+02       -4.0033e+01        1.000           8.4
  18      8.5095e+03       1.7864e+02       -4.9044e+01        1.000           8.8
  19      6.4288e+03       1.8314e+02       -6.0332e+01        1.000           9.3
  20      4.8569e+03       1.8858e+02       -7.4273e+01        0.999           9.8
  21      3.6694e+03       1.9533e+02       -9.1304e+01        1.000          10.2
  22      2.7722e+03       2.0313e+02       -1.1301e+02        0.999          10.6
  23      2.0944e+03       2.1252e+02       -1.4011e+02        0.999          11.1
  24      1.5823e+03       2.2384e+02       -1.7408e+02        1.000          11.6
  25      1.1954e+03       2.3727e+02       -2.1708e+02        0.999          12.0
  26      9.0311e+02       2.5374e+02       -2.7127e+02        1.000          12.5
  27      6.8229e+02       2.7361e+02       -3.4006e+02        1.000          12.9
  28      5.1546e+02       2.9823e+02       -4.2728e+02        0.999          13.4
  29      3.8943e+02       3.2944e+02       -5.3794e+02        0.999          13.9
  30      2.9421e+02       3.6540e+02       -6.7306e+02        0.999          14.6
  31      2.2227e+02       4.1569e+02       -8.4900e+02        0.998          15.3
  32      1.6793e+02       4.7935e+02       -1.0714e+03        0.998          15.7
  33      1.2687e+02       5.6152e+02       -1.3516e+03        0.998          16.2
  34      9.5846e+01       6.6813e+02       -1.7046e+03        0.998          16.7
  35      7.2411e+01       8.0686e+02       -2.1466e+03        0.997          17.3
  36      5.4092e+01       9.9054e+02       -2.7233e+03        0.997          18.7
  37      3.9533e+01       1.2554e+03       -3.5130e+03        0.997          20.5
  38      2.8174e+01       1.6406e+03       -4.6153e+03        0.997          21.9
  39      1.9503e+01       2.2183e+03       -6.1865e+03        0.997          23.6
  40      1.3058e+01       3.1097e+03       -8.4725e+03        0.997          26.0
  41      8.4196e+00       4.5415e+03       -1.1901e+04        0.997          28.6
  42      5.2123e+00       6.9160e+03       -1.7128e+04        0.997          31.3
  43      3.0979e+00       1.0944e+04       -2.5114e+04        0.997          34.7
  44      1.7783e+00       1.7830e+04       -3.7249e+04        0.997          39.7
  45      1.0000e+00       2.9014e+04       -5.4808e+04        0.996          44.3

File: 10.txt
File.......:  cell10ppoclliftfsi20wt - OCT,30.2021

System.....:
Potential..:  0.007V
Current....:  -26.264nA
Temperature:  -0.7 +-0.1 C
Time.......:  15:07:30 - 15:08:18
Comment....:

              Main
time.......:  22680 s
Impedance samples

Lines:   45
Columns: 5

Number   Frequency/Hz   impedance R/Ohm   impedance I/Ohm   Significance   Time/s
   1      1.0000e+06       5.6030e+01       -8.1442e+00        0.999           0.0
   2      7.5549e+05       5.6642e+01       -7.3602e+00        0.999           1.0
   3      5.7077e+05       5.7206e+01       -6.8335e+00        0.999           1.5
   4      4.3121e+05       5.7691e+01       -6.5857e+00        1.000           2.3
   5      3.2578e+05       5.8373e+01       -6.6843e+00        1.000           3.0
   6      2.4612e+05       5.9055e+01       -6.9311e+00        1.000           3.4
   7      1.8594e+05       5.9863e+01       -7.4564e+00        1.000           3.9
   8      1.4048e+05       6.0878e+01       -8.1986e+00        1.000           4.4
   9      1.0613e+05       6.1901e+01       -9.1427e+00        1.000           4.8
  10      8.0180e+04       6.3215e+01       -1.0327e+01        1.000           5.3
  11      6.0575e+04       6.4332e+01       -1.2028e+01        1.000           5.8
  12      4.5764e+04       6.5901e+01       -1.3886e+01        1.000           6.3
  13      3.4574e+04       6.8450e+01       -1.6229e+01        1.000           7.0
  14      2.6121e+04       7.0473e+01       -1.8939e+01        1.000           7.8
  15      1.9734e+04       7.2678e+01       -2.2283e+01        1.000           8.2
  16      1.4909e+04       7.5108e+01       -2.6363e+01        0.999           8.7
  17      1.1263e+04       7.7735e+01       -3.1485e+01        0.999           9.1
  18      8.5095e+03       8.0732e+01       -3.7890e+01        1.000           9.6
  19      6.4288e+03       8.4041e+01       -4.6018e+01        1.000          10.1
  20      4.8569e+03       8.7872e+01       -5.6293e+01        0.999          10.6
  21      3.6694e+03       9.2497e+01       -6.9233e+01        1.000          11.0
  22      2.7722e+03       9.7798e+01       -8.5893e+01        1.000          11.5
  23      2.0944e+03       1.0421e+02       -1.0706e+02        1.000          12.0
  24      1.5823e+03       1.1212e+02       -1.3397e+02        0.999          12.5
  25      1.1954e+03       1.2182e+02       -1.6823e+02        0.999          12.9
  26      9.0311e+02       1.3382e+02       -2.1168e+02        0.998          13.4
  27      6.8229e+02       1.4879e+02       -2.6688e+02        0.999          13.9
  28      5.1546e+02       1.6775e+02       -3.3688e+02        0.999          14.3
  29      3.8943e+02       1.9234e+02       -4.2567e+02        1.000          14.8
  30      2.9421e+02       2.2358e+02       -5.3792e+02        0.999          15.4
  31      2.2227e+02       2.6231e+02       -6.7434e+02        0.998          16.1
  32      1.6793e+02       3.1428e+02       -8.5154e+02        0.998          16.8
  33      1.2687e+02       3.8203e+02       -1.0745e+03        0.998          17.3
  34      9.5846e+01       4.7081e+02       -1.3541e+03        0.998          17.9
  35      7.2411e+01       5.8723e+02       -1.7031e+03        0.998          18.5
  36      5.4092e+01       7.4350e+02       -2.1556e+03        0.998          20.0
  37      3.9533e+01       9.6946e+02       -2.7709e+03        0.998          21.8
  38      2.8174e+01       1.3000e+03       -3.6208e+03        0.998          23.3
  39      1.9503e+01       1.7948e+03       -4.8180e+03        0.998          24.9
  40      1.3058e+01       2.5495e+03       -6.5317e+03        0.998          27.3
  41      8.4196e+00       3.7355e+03       -9.0579e+03        0.998          29.9
  42      5.2123e+00       5.6379e+03       -1.2845e+04        0.998          32.7
  43      3.0979e+00       8.7365e+03       -1.8567e+04        0.998          36.1
  44      1.7783e+00       1.3821e+04       -2.7208e+04        0.997          41.1
  45      1.0000e+00       2.1836e+04       -3.9836e+04        0.997          45.7